<?xml version="1.0" encoding="UTF-8"?>
<Bundle xmlns="http://hl7.org/fhir">
  <id value="aups-noknownx"/>
  <meta>
    <profile value="http://hl7.org.au/fhir/ps/StructureDefinition/au-ps-bundle"/>
  </meta>
  <language value="en-AU"/>
  <identifier>
    <system value="urn:ietf:rfc:3986"/>
    <value value="urn:c1b07c4e-7a7a-4711-93e2-9a589b8c87e0"/>
  </identifier>
  <type value="document"/>
  <timestamp value="2025-05-14T08:17:43.912+10:00"/>
  <entry>
    <fullUrl value="urn:uuid:63b319ec-7321-4a70-973b-2cead2b28c28"/>
    <resource>
      <Composition>
        <id value="63b319ec-7321-4a70-973b-2cead2b28c28"/>
        <meta>
          <versionId value="1"/>
        </meta>
        <language value="en-AU"/>
        <status value="final"/>
        <type>
          <coding>
            <system value="http://loinc.org"/>
            <code value="60591-5"/>
            <display value="Patient summary Document"/>
          </coding>
        </type>
        <subject>
          <reference value="urn:uuid:03b8cc8a-df59-4daf-b9f2-8b49d3c7579a"/>
        </subject>
        <date value="2025-05-14"/>
        <author>
          <reference value="urn:uuid:719de42c-3b25-45d6-b24f-ebec9a753175"/>
        </author>
        <title value="Australian Patient Summary"/>
        <custodian>
          <reference value="urn:uuid:abfb35a4-7b89-46d1-be21-dec293999a1b"/>
        </custodian>
        <section>
          <title value="Active Problems"/>
          <code>
            <coding>
              <system value="http://loinc.org"/>
              <code value="11450-4"/>
              <display value="Problem list - Reported"/>
            </coding>
          </code>
          <text>
            <status value="generated"/><div xmlns="http://www.w3.org/1999/xhtml" lang="en-AU" xml:lang="en-AU">30/03/2025 No current problem or disability.</div>
          </text>
          <entry>
            <reference value="urn:uuid:df366c47-c739-4c16-939e-b5cf9afb0b7d"/>
          </entry>
        </section>
        <section>
          <title value="Active Allergies or Intolerances"/>
          <code>
            <coding>
              <system value="http://loinc.org"/>
              <code value="48765-2"/>
              <display value="Allergies and adverse reactions Document"/>
            </coding>
          </code>
          <text>
            <status value="generated"/><div xmlns="http://www.w3.org/1999/xhtml" lang="en-AU" xml:lang="en-AU">10/12/2024 No known allergy.</div>
          </text>
          <entry>
            <reference value="urn:uuid:9840a67e-3621-470d-9a7c-e559422591f5"/>
          </entry>
        </section>
        <section>
          <title value="Current Medicines"/>
          <code>
            <coding>
              <system value="http://loinc.org"/>
              <code value="10160-0"/>
              <display value="History of Medication use Narrative"/>
            </coding>
          </code>
          <text>
            <status value="generated"/><div xmlns="http://www.w3.org/1999/xhtml" lang="en-AU" xml:lang="en-AU">14/05/2025 No known current medicines.</div>
          </text>
          <entry>
            <reference value="urn:uuid:0fc878c1-a158-425f-ba08-ea4366fbb4e1"/>
          </entry>
        </section>
      </Composition>
    </resource>
  </entry>
  <entry>
    <fullUrl value="urn:uuid:03b8cc8a-df59-4daf-b9f2-8b49d3c7579a"/>
    <resource>
       <Patient>
        <id value="03b8cc8a-df59-4daf-b9f2-8b49d3c7579a"/>
        <extension url="http://hl7.org.au/fhir/StructureDefinition/indigenous-status">
          <valueCoding>
            <system value="https://healthterminologies.gov.au/fhir/CodeSystem/australian-indigenous-status-1"/>
            <code value="2"/>
            <display value="Torres Strait Islander but not Aboriginal origin"/>
          </valueCoding>
        </extension>
        <identifier>
          <type>
            <coding>
              <system value="http://terminology.hl7.org.au/CodeSystem/v2-0203"/>
              <code value="DVAU"/>
              <display value="DVA Number"/>
            </coding>
            <text value="DVA Number"/>
          </type>
          <system value="http://ns.electronichealth.net.au/id/dva"/>
          <value value="QX827261"/>
        </identifier>
        <name>
          <use value="usual"/>
          <text value="Mr. Ronny Lawrence Irvine"/>
          <family value="Irvine"/>
          <given value="Ronny"/>
          <given value="Lawrence"/>
        </name>
        <telecom>
          <system value="email"/>
          <value value="ronny.irvine@myownpersonaldomain.com"/>
          <use value="home"/>
        </telecom>
        <gender value="male"/>
        <birthDate>
          <extension url="http://hl7.org/fhir/StructureDefinition/data-absent-reason">
            <valueCode value="unknown"/>
          </extension>
        </birthDate>
        <address>
          <use value="home"/>
          <line value="180 Hermann Rd"/>
          <city value="Belmore River"/>
          <state value="NSW"/>
          <postalCode value="2440"/>
          <country value="AU"/>
        </address>
      </Patient>
    </resource>
  </entry>
  <entry>
    <fullUrl value="urn:uuid:abfb35a4-7b89-46d1-be21-dec293999a1b"/>
    <resource>
      <Organization>
        <id value="abfb35a4-7b89-46d1-be21-dec293999a1b"/>
        <identifier>
          <type>
            <coding>
              <system value="http://terminology.hl7.org.au/CodeSystem/v2-0203"/>
              <code value="NOI"/>
            </coding>
            <text value="HPI-O"/>
          </type>
          <system value="http://ns.electronichealth.net.au/id/hi/hpio/1.0"/>
          <value value="8003629900040482"/>
        </identifier>
        <identifier>
          <type>
            <coding>
              <system value="http://terminology.hl7.org/CodeSystem/v2-0203"/>
              <code value="XX"/>
            </coding>
            <text value="ABN"/>
          </type>
          <system value="http://hl7.org.au/id/abn"/>
          <value value="81132303164"/>
        </identifier>
        <type>
          <coding>
            <system value="http://www.abs.gov.au/ausstats/abs@.nsf/mf/1292.0"/>
            <code value="8520"/>
            <display value="Pathology and Diagnostic Imaging Services"/>
          </coding>
          <coding>
            <system value="http://snomed.info/sct"/>
            <code value="708175003"/>
            <display value="Diagnostic imaging service"/>
          </coding>
          <text value="Diagnostic Radiology"/>
        </type>
        <name value="Douglas Radiology"/>
        <telecom>
          <system value="phone"/>
          <value value="0355500107"/>
          <use value="work"/>
        </telecom>
        <telecom>
          <system value="email"/>
          <value value="reception@douglasradiology.example.com.au"/>
        </telecom>
        <address>
          <line value="74 Freedom Lane"/>
          <city value="Douglas"/>
          <state value="VIC"/>
          <postalCode value="3401"/>
        </address>
      </Organization>
    </resource>
  </entry>
  <entry>
    <fullUrl value="urn:uuid:719de42c-3b25-45d6-b24f-ebec9a753175"/>
    <resource>
       <RelatedPerson>
        <id value="719de42c-3b25-45d6-b24f-ebec9a753175"/>
        <patient>
          <reference value="urn:uuid:9be88cc6-09e8-4dc6-b058-88676240dbc7"/>
        </patient>
        <relationship>
          <coding>
            <system value="http://terminology.hl7.org/CodeSystem/v3-RoleCode"/>
            <code value="SON"/>
          </coding>
          <text value="Son"/>
        </relationship>
        <name>
          <use value="usual"/>
          <text value="Mr. Sonny Irvine"/>
          <family value="Irvine"/>
          <given value="Sonny"/>
        </name>
        <telecom>
         <system value="phone"/>
          <value value="0491570737"/>
          <use value="mobile"/>
        </telecom>
        <address>
          <use value="home"/>
          <line value="1415 Right Bank Rd"/>
          <city value="Belmore River"/>
          <state value="NSW"/>
          <postalCode value="2440"/>
          <country value="AU"/>
        </address>
      </RelatedPerson>
    </resource>
  </entry>
  <entry>
    <fullUrl value="urn:uuid:9840a67e-3621-470d-9a7c-e559422591f5"/>
    <resource>
      <AllergyIntolerance>
        <id value="9840a67e-3621-470d-9a7c-e559422591f5"/>
        <clinicalStatus>
          <coding>
            <system value="http://terminology.hl7.org/CodeSystem/allergyintolerance-clinical"/>
            <code value="active"/>
            <display value="Active"/>
          </coding>
        </clinicalStatus>
        <code>
          <coding>
            <system value="http://snomed.info/sct"/>
            <code value="716186003"/>
            <display value="No known allergy"/>
          </coding>
        </code>
        <patient>
          <reference value="urn:uuid:03b8cc8a-df59-4daf-b9f2-8b49d3c7579a"/>
        </patient>
        <recordedDate value="2024-12-10"/>
      </AllergyIntolerance>
    </resource>
  </entry>
  <entry>
    <fullUrl value="urn:uuid:0fc878c1-a158-425f-ba08-ea4366fbb4e1"/>
    <resource>
      <MedicationStatement xmlns="http://hl7.org/fhir">
        <id value="0fc878c1-a158-425f-ba08-ea4366fbb4e1"/>
        <status value="active"/>
        <medicationCodeableConcept>
          <coding>
            <system value="http://snomed.info/sct"/>
            <code value="1234391000168107"/>
            <display value="No known current medicines"/>
          </coding>
        </medicationCodeableConcept>
        <subject>
            <reference value="urn:uuid:03b8cc8a-df59-4daf-b9f2-8b49d3c7579a"/>
        </subject>
        <effectiveDateTime value="2025-05-14"/>
      </MedicationStatement>
    </resource>
  </entry>
  <entry>
    <fullUrl value="urn:uuid:df366c47-c739-4c16-939e-b5cf9afb0b7d"/>
    <resource>
      <Condition xmlns="http://hl7.org/fhir">
        <id value="df366c47-c739-4c16-939e-b5cf9afb0b7d"/>
        <clinicalStatus>
            <coding>
                <system value="http://terminology.hl7.org/CodeSystem/condition-clinical"/>
                <code value="active"/>
                <display value="Active"/>
            </coding>
        </clinicalStatus>
        <category>
            <coding>
                <system value="http://terminology.hl7.org/CodeSystem/condition-category"/>
                <code value="problem-list-item"/>
                <display value="Problem List Item"/>
            </coding>
        </category>
        <code>
            <coding>
                <system value="http://snomed.info/sct"/>
                <code value="160245001"/>
                <display value="No current problems or disability"/>
            </coding>
        </code>
        <subject>
            <reference value="urn:uuid:03b8cc8a-df59-4daf-b9f2-8b49d3c7579a"/>
        </subject>
        <recordedDate value="2025-03-30"/>
      </Condition>
    </resource>
  </entry>
</Bundle>