<Bundle xmlns="http://hl7.org/fhir">
  <id value="aups-referral-endoconsult-autogen"/>
  <meta>
    <profile value="http://hl7.org.au/fhir/ps/StructureDefinition/au-ps-bundle"/>
  </meta>
  <identifier>
    <system value="urn:ietf:rfc:3986"/>
    <value value="urn:uuid:b1398367-c580-412f-a34e-a09bab5d0bf2"/>
  </identifier>
  <type value="document"/>
  <timestamp value="2024-11-07T10:02:11.269+11:00"/>
  <entry>
    <fullUrl value="urn:uuid:ecf18329-b2ae-4648-8888-01aff6dc8172"/>
    <resource>
      <Composition>
        <id value="ecf18329-b2ae-4648-8888-01aff6dc8172"/>
        <meta>
          <profile value="http://hl7.org.au/fhir/ps/StructureDefinition/au-ps-composition"/>
        </meta>
        <status value="final"/>
        <type>
          <coding>
            <system value="http://loinc.org"/>
            <code value="60591-5"/>
          </coding>
        </type>
        <subject>
          <reference value="urn:uuid:85822a88-55b1-460c-bb7b-e8fc22d8568f"/>
        </subject>
        <date value="2024-11-07T10:02:10.868+11:00"/>
        <author>
          <reference value="urn:uuid:40c3b2a7-e673-4f83-8dd8-2b112a88775e"/>
        </author>
        <title value="Patient Summary for Joyce Johnson as of 07 NOV 2024"/>
        <custodian>
          <reference value="urn:uuid:14292353-98f0-43b3-a25b-406baf3f9175"/>
        </custodian>
        <event>
          <code>
            <coding>
              <system value="http://terminology.hl7.org/CodeSystem/v3-ActClass"/>
              <code value="PCPR"/>
            </coding>
          </code>
          <period>
            <end value="2024-11-07T10:02:10+11:00"/>
          </period>
        </event>
        <section>
          <title value="Allergies and Intolerances"/>
          <code>
            <coding>
              <system value="http://loinc.org"/>
              <code value="48765-2"/>
            </coding>
          </code>
          <text>
            <status value="generated"/>
            <div xmlns="http://www.w3.org/1999/xhtml">
              <table border="1">
                <thead>
                  <tr>
                    <th>Type</th>
                    <th>Substance</th>
                    <th>Date/time of onset of first reaction</th>
                    <th>Manifestation</th>
                    <th>Severity of reaction</th>
                    <th>Comment</th>
                  </tr>
                </thead>
                <tbody>
                  <tr>
                    <td>Allergy</td>
                    <td>Prawns</td>
                    <td>18:50 02/11/2024</td>
                    <td>Itchy throat</td>
                    <td>Mild</td>
                    <td>Pt stated had prawns with dinner and noticed itchy throat, never experienced this before</td>
                  </tr>
                </tbody>
              </table>
            </div>
          </text>
          <entry>
            <reference value="urn:uuid:f7bd83e4-2a4e-40be-8467-8a29b667ef46"/>
          </entry>
        </section>
        <section>
          <title value="Medication Summary"/>
          <code>
            <coding>
              <system value="http://loinc.org"/>
              <code value="10160-0"/>
            </coding>
          </code>
          <text>
            <status value="generated"/>
            <div xmlns="http://www.w3.org/1999/xhtml">
              <table border="1">
                <thead>
                  <tr>
                    <th>Medicine</th>
                    <th>Dose</th>
                    <th>Clinical Indication</th>
                    <th>Status</th>
                    <th>Last Updated</th>
                    <th>Comment</th>
                  </tr>
                </thead>
                <tbody>
                  <tr>
                    <td>Prenatal vitamins</td>
                    <td>1 tablet daily</td>
                    <td/>
                    <td>Active</td>
                    <td>28/10/2024</td>
                    <td>Pt prefers Blackmores</td>
                  </tr>
                  <tr>
                    <td>Insulin (Humulin N)</td>
                    <td>10 units subcutaneously in the morning and evening</td>
                    <td/>
                    <td>Active</td>
                    <td>28/10/2024</td>
                    <td/>
                  </tr>
                  <tr>
                    <td>Insulin (Humulin R)</td>
                    <td>5 units subcutaneously before each meal</td>
                    <td/>
                    <td>Active</td>
                    <td>28/10/2024</td>
                    <td/>
                  </tr>
                  <tr>
                    <td>Metformin</td>
                    <td>500mg twice daily</td>
                    <td/>
                    <td>Active</td>
                    <td>28/10/2024</td>
                    <td/>
                  </tr>
                  <tr>
                    <td>Trimethoprim</td>
                    <td>300mg daily for 3 days</td>
                    <td>Urinary tract infection (UTI)</td>
                    <td>Active</td>
                    <td>04/11/2024</td>
                    <td/>
                  </tr>
                </tbody>
              </table>
            </div>
          </text>
          <entry>
            <reference value="urn:uuid:7193cc2f-d03e-42cb-ab55-4130904505d5"/>
          </entry>
          <entry>
            <reference value="urn:uuid:1c4dd2b6-a9ee-4ba3-9b37-c1aff277c417"/>
          </entry>
          <entry>
            <reference value="urn:uuid:166c2afe-c6fb-4928-88f0-1c1a1e5e65cd"/>
          </entry>
          <entry>
            <reference value="urn:uuid:05292a9c-2bc9-43a7-b935-0a61ede063da"/>
          </entry>
          <entry>
            <reference value="urn:uuid:cbe37f4b-e84b-4f34-8490-f21da27f1aa9"/>
          </entry>
        </section>
        <section>
          <title value="Problem list"/>
          <code>
            <coding>
              <system value="http://loinc.org"/>
              <code value="11450-4"/>
            </coding>
          </code>
          <text>
            <status value="generated"/>
            <div xmlns="http://www.w3.org/1999/xhtml">
              <table border="1">
                <thead>
                  <tr>
                    <th>Problem/Diagnosis</th>
                    <th>Status</th>
                    <th>Comment</th>
                  </tr>
                </thead>
                <tbody>
                  <tr>
                    <td>Gestational diabetes</td>
                    <td>Active</td>
                    <td>Recent diagnosis, referring to Endo &amp; Dietitian</td>
                  </tr>
                  <tr>
                    <td>Anaemia</td>
                    <td>Active</td>
                    <td/>
                  </tr>
                  <tr>
                    <td>Urinary tract infection (UTI)</td>
                    <td>Active</td>
                    <td>Patient reported symptoms of UTI. MSU to confirm</td>
                  </tr>
                </tbody>
              </table>
            </div>
          </text>
          <entry>
            <reference value="urn:uuid:cb647933-b18c-42ef-a1c8-ae137921ba83"/>
          </entry>
          <entry>
            <reference value="urn:uuid:78f75926-3ee1-44a7-9424-6178d905af63"/>
          </entry>
          <entry>
            <reference value="urn:uuid:07034a67-66ce-4d29-95ab-1ef7e964a873"/>
          </entry>
        </section>
        <section>
          <title value="History of Immunizations"/>
          <code>
            <coding>
              <system value="http://loinc.org"/>
              <code value="11369-6"/>
            </coding>
          </code>
          <text>
            <status value="generated"/>
            <div xmlns="http://www.w3.org/1999/xhtml">
              <table border="1">
                <thead>
                  <tr>
                    <th>Vaccine</th>
                    <th>Date of administration</th>
                    <th>Comment</th>
                  </tr>
                </thead>
                <tbody>
                  <tr>
                    <td>Diphtheria + tetanus + pertussis 5 component adolescent/adult vaccine injection, 0.5 mL syringe</td>
                    <td>05/10/2024</td>
                    <td/>
                  </tr>
                  <tr>
                    <td>Influenza vaccine</td>
                    <td>05/05/2024</td>
                    <td/>
                  </tr>
                  <tr>
                    <td>Influenza vaccine</td>
                    <td>15/05/2023</td>
                    <td>Pt reported localised redness and swelling post previous flu vax last year. Monitor for rxn.</td>
                  </tr>
                  <tr>
                    <td>COVID-19 mRNA-1273 Vaccine (Moderna) injection, 0.5 mL syringe</td>
                    <td>15/05/2023</td>
                    <td/>
                  </tr>
                  <tr>
                    <td>Influenza vaccine</td>
                    <td>01/06/2022</td>
                    <td/>
                  </tr>
                  <tr>
                    <td>Covid vaccine - Pfizer</td>
                    <td>02/02/2022</td>
                    <td/>
                  </tr>
                  <tr>
                    <td>Covid vaccine - Pfizer</td>
                    <td>20/07/2021</td>
                    <td/>
                  </tr>
                  <tr>
                    <td>Influenza vaccine</td>
                    <td>17/05/2021</td>
                    <td/>
                  </tr>
                  <tr>
                    <td>Covid vaccine - Pfizer</td>
                    <td>27/04/2021</td>
                    <td/>
                  </tr>
                  <tr>
                    <td>Influenza vaccine</td>
                    <td>03/05/2020</td>
                    <td/>
                  </tr>
                </tbody>
              </table>
            </div>
          </text>
          <entry>
            <reference value="urn:uuid:784ae7d5-22df-442d-b932-0c001720136c"/>
          </entry>
          <entry>
            <reference value="urn:uuid:46624cc1-7d2e-4367-aa82-85d097ac423f"/>
          </entry>
          <entry>
            <reference value="urn:uuid:5711e015-890f-489d-9f8f-49d9a7ff95cd"/>
          </entry>
          <entry>
            <reference value="urn:uuid:97767fb5-3be7-4d16-9ee8-76c47a4ab0ce"/>
          </entry>
          <entry>
            <reference value="urn:uuid:62eb70e3-e814-4785-80d3-8aa45b1fc367"/>
          </entry>
          <entry>
            <reference value="urn:uuid:fac8c42e-4d2a-4cf5-bcc6-831c60e8230e"/>
          </entry>
          <entry>
            <reference value="urn:uuid:40a0b552-b0ea-4283-b33e-a5d2e26ed20f"/>
          </entry>
          <entry>
            <reference value="urn:uuid:2f3537b2-f50c-4a2a-ab92-30fdcfe5fd96"/>
          </entry>
          <entry>
            <reference value="urn:uuid:eb1f812e-41c6-4f8d-b9de-573428a94994"/>
          </entry>
          <entry>
            <reference value="urn:uuid:c4e7d351-cd85-435d-9fa5-2db04108651f"/>
          </entry>
        </section>
        <section>
          <title value="Past Medical History (Problems)"/>
          <code>
            <coding>
              <system value="http://loinc.org"/>
              <code value="11348-0"/>
            </coding>
          </code>
          <text>
            <status value="generated"/>
            <div xmlns="http://www.w3.org/1999/xhtml">
              <table border="1">
                <thead>
                  <tr>
                    <th>Problem/Diagnosis</th>
                    <th>Status</th>
                    <th>Onset Date</th>
                    <th>Comment</th>
                  </tr>
                </thead>
                <tbody>
                  <tr>
                    <td>Appendicitis</td>
                    <td>Resolved</td>
                    <td>03/2000</td>
                    <td/>
                  </tr>
                  <tr>
                    <td>Upper respiratory tract infection</td>
                    <td>Resolved</td>
                    <td>10/2022</td>
                    <td/>
                  </tr>
                  <tr>
                    <td>First degree burn, Upper shoulders and back</td>
                    <td>Resolved</td>
                    <td>02/01/2005</td>
                    <td>Severe sunburn, upper shoulders and back</td>
                  </tr>
                </tbody>
              </table>
            </div>
          </text>
          <entry>
            <reference value="urn:uuid:289aff01-0b3e-4614-aee8-378d074fc3d2"/>
          </entry>
          <entry>
            <reference value="urn:uuid:e6db9bbe-60c3-4f89-8f65-25c58771fe41"/>
          </entry>
          <entry>
            <reference value="urn:uuid:dc422222-8b3a-4dd5-96b5-b7e0cf43b477"/>
          </entry>
        </section>
        <section>
          <title value="Pregnancy Information"/>
          <code>
            <coding>
              <system value="http://loinc.org"/>
              <code value="10162-6"/>
            </coding>
          </code>
          <text>
            <status value="generated"/>
            <div xmlns="http://www.w3.org/1999/xhtml">Pregnancy confirmed 12/06/2024. Estimated Date of Delivery  03/02/2025.</div>
          </text>
          <entry>
            <reference value="urn:uuid:f85ad223-7bed-46f3-893d-e89d6082f9a9"/>
          </entry>
        </section>
        <section>
          <title value="Result History"/>
          <code>
            <coding>
              <system value="http://loinc.org"/>
              <code value="30954-2"/>
            </coding>
          </code>
          <text>
            <status value="generated"/>
            <div xmlns="http://www.w3.org/1999/xhtml">
              <table border="1">
                <thead>
                  <tr>
                    <th>Test Name</th>
                    <th>Test Result</th>
                    <th>Date</th>
                  </tr>
                </thead>
                <tbody>
                  <tr>
                    <td>Glucose Tolerance Test (GTT) Fasting</td>
                    <td>5.3 mmol/L</td>
                    <td>21/10/2024</td>
                  </tr>
                  <tr>
                    <td>Glucose Tolerance Test (GTT) 1 hour</td>
                    <td>10.0 mmol/L</td>
                    <td>21/10/2024</td>
                  </tr>
                  <tr>
                    <td>Glucose Tolerance Test (GTT) 2 hour</td>
                    <td>8.6 mmol/L</td>
                    <td>21/10/2024</td>
                  </tr>
                  <tr>
                    <td>Haemoglobin A1c</td>
                    <td>5.8 %</td>
                    <td>14/06/2024</td>
                  </tr>
                </tbody>
              </table>
            </div>
          </text>
          <entry>
            <reference value="urn:uuid:5f1b9790-4892-4af3-9b76-3cb4f854a5b1"/>
          </entry>
          <entry>
            <reference value="urn:uuid:1bbd2e05-161d-4030-975c-0cca3ef97cdb"/>
          </entry>
          <entry>
            <reference value="urn:uuid:27060cbf-e30e-4091-bd64-7d4ef40916ac"/>
          </entry>
          <entry>
            <reference value="urn:uuid:fc061f59-5410-41e9-945e-3f59664e8611"/>
          </entry>
        </section>
        <section>
          <title value="Social History"/>
          <code>
            <coding>
              <system value="http://loinc.org"/>
              <code value="29762-2"/>
            </coding>
          </code>
          <text>
            <status value="generated"/>
            <div xmlns="http://www.w3.org/1999/xhtml">Lifetime non-smoker 28/10/2024</div>
          </text>
          <entry>
            <reference value="urn:uuid:8924f910-53b3-4125-b0f2-58d0068f8983"/>
          </entry>
        </section>
      </Composition>
    </resource>
  </entry>
  <entry>
    <fullUrl value="urn:uuid:85822a88-55b1-460c-bb7b-e8fc22d8568f"/>
    <resource>
      <Patient>
        <id value="85822a88-55b1-460c-bb7b-e8fc22d8568f"/>
        <meta>
          <profile value="http://hl7.org.au/fhir/ps/StructureDefinition/au-ps-patient"/>
        </meta>
        <extension url="http://hl7.org.au/fhir/StructureDefinition/indigenous-status">
          <valueCoding>
            <system value="https://healthterminologies.gov.au/fhir/CodeSystem/australian-indigenous-status-1"/>
            <code value="4"/>
            <display value="Neither Aboriginal nor Torres Strait Islander origin"/>
          </valueCoding>
        </extension>
        <identifier>
          <type>
            <coding>
              <system value="http://terminology.hl7.org/CodeSystem/v2-0203"/>
              <code value="NI"/>
            </coding>
            <text value="IHI"/>
          </type>
          <system value="http://ns.electronichealth.net.au/id/hi/ihi/1.0"/>
          <value value="8003608500314679"/>
        </identifier>
        <identifier>
          <type>
            <coding>
              <system value="http://terminology.hl7.org/CodeSystem/v2-0203"/>
              <code value="MC"/>
            </coding>
            <text value="Medicare Number"/>
          </type>
          <system value="http://ns.electronichealth.net.au/id/medicare-number"/>
          <value value="29545401611"/>
        </identifier>
        <name>
          <family value="JOHNSON"/>
          <given value="Joyce"/>
        </name>
        <telecom>
          <system value="phone"/>
          <value value="0270108012"/>
          <use value="home"/>
        </telecom>
        <telecom>
          <system value="phone"/>
          <value value="0491571804"/>
          <use value="mobile"/>
        </telecom>
        <gender value="female"/>
        <birthDate value="1985-02-06"/>
        <address>
          <line value="139 River Lane"/>
          <city value="Palmvale"/>
          <state value="NSW"/>
          <postalCode value="2484"/>
          <country value="AU"/>
        </address>
        <generalPractitioner>
          <reference value="urn:uuid:afead11c-3bee-4020-af4f-44040abfa961"/>
        </generalPractitioner>
      </Patient>
    </resource>
  </entry>
  <entry>
    <fullUrl value="urn:uuid:f7bd83e4-2a4e-40be-8467-8a29b667ef46"/>
    <resource>
      <AllergyIntolerance>
        <id value="f7bd83e4-2a4e-40be-8467-8a29b667ef46"/>
        <meta>
          <profile value="http://hl7.org.au/fhir/ps/StructureDefinition/au-ps-allergyintolerance"/>
        </meta>
        <clinicalStatus>
          <coding>
            <system value="http://terminology.hl7.org/CodeSystem/allergyintolerance-clinical"/>
            <code value="active"/>
            <display value="Active"/>
          </coding>
        </clinicalStatus>
        <verificationStatus>
          <coding>
            <system value="http://terminology.hl7.org/CodeSystem/allergyintolerance-verification"/>
            <code value="unconfirmed"/>
            <display value="Unconfirmed"/>
          </coding>
        </verificationStatus>
        <type value="allergy"/>
        <code>
          <coding>
            <system value="http://snomed.info/sct"/>
            <code value="227151004"/>
            <display value="Prawns"/>
          </coding>
          <text value="Prawns"/>
        </code>
        <patient>
          <reference value="urn:uuid:85822a88-55b1-460c-bb7b-e8fc22d8568f"/>
        </patient>
        <onsetDateTime value="2024-11-02T18:50:00+11:00"/>
        <recordedDate value="2024-11-04"/>
        <note>
          <text value="Pt stated had prawns with dinner and noticed itchy throat, never experienced this before"/>
        </note>
        <reaction>
          <manifestation>
            <text value="Itchy throat"/>
          </manifestation>
          <severity value="mild"/>
        </reaction>
      </AllergyIntolerance>
    </resource>
  </entry>
  <entry>
    <fullUrl value="urn:uuid:cbe37f4b-e84b-4f34-8490-f21da27f1aa9"/>
    <resource>
      <MedicationStatement>
        <id value="cbe37f4b-e84b-4f34-8490-f21da27f1aa9"/>
        <meta>
          <profile value="http://hl7.org.au/fhir/ps/StructureDefinition/au-ps-medicationstatement"/>
        </meta>
        <contained>
          <Medication>
            <id value="trimethoprim"/>
            <meta>
              <profile value="http://hl7.org.au/fhir/ps/StructureDefinition/au-ps-medication"/>
            </meta>
            <code>
              <coding>
                <system value="http://snomed.info/sct"/>
                <code value="32792001"/>
                <display value="Trimethoprim"/>
              </coding>
              <text value="Trimethoprim"/>
            </code>
            <form>
              <coding>
                <system value="http://snomed.info/sct"/>
                <code value="421026006"/>
                <display value="Tablet"/>
              </coding>
              <text value="Tablet"/>
            </form>
          </Medication>
        </contained>
        <status value="active"/>
        <medicationReference>
          <reference value="#trimethoprim"/>
        </medicationReference>
        <subject>
          <reference value="urn:uuid:85822a88-55b1-460c-bb7b-e8fc22d8568f"/>
        </subject>
        <effectivePeriod>
          <start value="2024-11-04"/>
        </effectivePeriod>
        <dateAsserted value="2024-11-04"/>
        <reasonReference>
          <reference value="urn:uuid:07034a67-66ce-4d29-95ab-1ef7e964a873"/>
        </reasonReference>
        <dosage>
          <text value="300mg daily for 3 days"/>
          <timing>
            <repeat>
              <frequency value="3"/>
              <period value="1"/>
              <periodUnit value="d"/>
            </repeat>
          </timing>
          <route>
            <coding>
              <system value="http://snomed.info/sct"/>
              <code value="26643006"/>
              <display value="Oral route"/>
            </coding>
            <text value="Oral route"/>
          </route>
        </dosage>
      </MedicationStatement>
    </resource>
  </entry>
  <entry>
    <fullUrl value="urn:uuid:05292a9c-2bc9-43a7-b935-0a61ede063da"/>
    <resource>
      <MedicationStatement>
        <id value="05292a9c-2bc9-43a7-b935-0a61ede063da"/>
        <meta>
          <profile value="http://hl7.org.au/fhir/ps/StructureDefinition/au-ps-medicationstatement"/>
        </meta>
        <contained>
          <Medication>
            <id value="metformin"/>
            <meta>
              <profile value="http://hl7.org.au/fhir/ps/StructureDefinition/au-ps-medication"/>
            </meta>
            <code>
              <coding>
                <system value="http://snomed.info/sct"/>
                <code value="109081006"/>
                <display value="Metformin"/>
              </coding>
              <text value="Metformin"/>
            </code>
            <form>
              <coding>
                <system value="http://snomed.info/sct"/>
                <code value="421026006"/>
                <display value="Tablet"/>
              </coding>
              <text value="Tablet"/>
            </form>
          </Medication>
        </contained>
        <status value="active"/>
        <medicationReference>
          <reference value="#metformin"/>
        </medicationReference>
        <subject>
          <reference value="urn:uuid:85822a88-55b1-460c-bb7b-e8fc22d8568f"/>
        </subject>
        <effectivePeriod>
          <start value="2024"/>
        </effectivePeriod>
        <dateAsserted value="2024-10-24"/>
        <dosage>
          <text value="500mg twice daily"/>
          <timing>
            <repeat>
              <frequency value="2"/>
              <period value="1"/>
              <periodUnit value="d"/>
            </repeat>
          </timing>
          <route>
            <coding>
              <system value="http://snomed.info/sct"/>
              <code value="26643006"/>
              <display value="Oral route"/>
            </coding>
            <text value="Oral route"/>
          </route>
        </dosage>
      </MedicationStatement>
    </resource>
  </entry>
  <entry>
    <fullUrl value="urn:uuid:166c2afe-c6fb-4928-88f0-1c1a1e5e65cd"/>
    <resource>
      <MedicationStatement>
        <id value="166c2afe-c6fb-4928-88f0-1c1a1e5e65cd"/>
        <meta>
          <profile value="http://hl7.org.au/fhir/ps/StructureDefinition/au-ps-medicationstatement"/>
        </meta>
        <status value="active"/>
        <medicationCodeableConcept>
          <text value="Prenatal vitamins"/>
        </medicationCodeableConcept>
        <subject>
          <reference value="urn:uuid:85822a88-55b1-460c-bb7b-e8fc22d8568f"/>
        </subject>
        <effectivePeriod>
          <start value="2024"/>
        </effectivePeriod>
        <dateAsserted value="2024-10-24"/>
        <note>
          <text value="Pt prefers Blackmores"/>
        </note>
        <dosage>
          <text value="1 tablet daily"/>
          <route>
            <coding>
              <system value="http://snomed.info/sct"/>
              <code value="26643006"/>
              <display value="Oral route"/>
            </coding>
            <text value="Oral route"/>
          </route>
        </dosage>
      </MedicationStatement>
    </resource>
  </entry>
  <entry>
    <fullUrl value="urn:uuid:7193cc2f-d03e-42cb-ab55-4130904505d5"/>
    <resource>
      <MedicationStatement>
        <id value="7193cc2f-d03e-42cb-ab55-4130904505d5"/>
        <meta>
          <profile value="http://hl7.org.au/fhir/ps/StructureDefinition/au-ps-medicationstatement"/>
        </meta>
        <status value="active"/>
        <medicationCodeableConcept>
          <text value="Insulin (Humulin N)"/>
        </medicationCodeableConcept>
        <subject>
          <reference value="urn:uuid:85822a88-55b1-460c-bb7b-e8fc22d8568f"/>
        </subject>
        <effectivePeriod>
          <start value="2024"/>
        </effectivePeriod>
        <dateAsserted value="2024-10-24"/>
        <dosage>
          <text value="10 units subcutaneously in the morning and evening"/>
        </dosage>
      </MedicationStatement>
    </resource>
  </entry>
  <entry>
    <fullUrl value="urn:uuid:1c4dd2b6-a9ee-4ba3-9b37-c1aff277c417"/>
    <resource>
      <MedicationStatement>
        <id value="1c4dd2b6-a9ee-4ba3-9b37-c1aff277c417"/>
        <meta>
          <profile value="http://hl7.org.au/fhir/ps/StructureDefinition/au-ps-medicationstatement"/>
        </meta>
        <status value="active"/>
        <medicationCodeableConcept>
          <text value="Insulin (Humulin R)"/>
        </medicationCodeableConcept>
        <subject>
          <reference value="urn:uuid:85822a88-55b1-460c-bb7b-e8fc22d8568f"/>
        </subject>
        <effectivePeriod>
          <start value="2024"/>
        </effectivePeriod>
        <dateAsserted value="2024-10-24"/>
        <dosage>
          <text value="5 units subcutaneously before each meal"/>
        </dosage>
      </MedicationStatement>
    </resource>
  </entry>
  <entry>
    <fullUrl value="urn:uuid:cb647933-b18c-42ef-a1c8-ae137921ba83"/>
    <resource>
      <Condition>
        <id value="cb647933-b18c-42ef-a1c8-ae137921ba83"/>
        <meta>
          <profile value="http://hl7.org.au/fhir/ps/StructureDefinition/au-ps-condition"/>
        </meta>
        <clinicalStatus>
          <coding>
            <system value="http://terminology.hl7.org/CodeSystem/condition-clinical"/>
            <code value="active"/>
          </coding>
        </clinicalStatus>
        <category>
          <coding>
            <system value="http://terminology.hl7.org/CodeSystem/condition-category"/>
            <code value="problem-list-item"/>
          </coding>
          <text value="Problem"/>
        </category>
        <code>
          <coding>
            <system value="http://snomed.info/sct"/>
            <code value="11687002"/>
            <display value="Gestational diabetes mellitus"/>
          </coding>
          <text value="Gestational diabetes"/>
        </code>
        <subject>
          <reference value="urn:uuid:85822a88-55b1-460c-bb7b-e8fc22d8568f"/>
        </subject>
        <note>
          <text value="Recent diagnosis, referring to Endo &amp; Dietitian"/>
        </note>
      </Condition>
    </resource>
  </entry>
  <entry>
    <fullUrl value="urn:uuid:07034a67-66ce-4d29-95ab-1ef7e964a873"/>
    <resource>
      <Condition>
        <id value="07034a67-66ce-4d29-95ab-1ef7e964a873"/>
        <meta>
          <profile value="http://hl7.org.au/fhir/ps/StructureDefinition/au-ps-condition"/>
        </meta>
        <clinicalStatus>
          <coding>
            <system value="http://terminology.hl7.org/CodeSystem/condition-clinical"/>
            <code value="active"/>
          </coding>
        </clinicalStatus>
        <verificationStatus>
          <coding>
            <system value="http://terminology.hl7.org/CodeSystem/condition-ver-status"/>
            <code value="provisional"/>
          </coding>
        </verificationStatus>
        <category>
          <coding>
            <system value="http://terminology.hl7.org/CodeSystem/condition-category"/>
            <code value="problem-list-item"/>
          </coding>
          <text value="Problem"/>
        </category>
        <code>
          <coding>
            <system value="http://snomed.info/sct"/>
            <code value="68566005"/>
            <display value="Urinary tract infection"/>
          </coding>
          <text value="Urinary tract infection (UTI)"/>
        </code>
        <subject>
          <reference value="urn:uuid:85822a88-55b1-460c-bb7b-e8fc22d8568f"/>
        </subject>
        <note>
          <text value="Patient reported symptoms of UTI. MSU to confirm."/>
        </note>
      </Condition>
    </resource>
  </entry>
  <entry>
    <fullUrl value="urn:uuid:78f75926-3ee1-44a7-9424-6178d905af63"/>
    <resource>
      <Condition>
        <id value="78f75926-3ee1-44a7-9424-6178d905af63"/>
        <meta>
          <profile value="http://hl7.org.au/fhir/ps/StructureDefinition/au-ps-condition"/>
        </meta>
        <clinicalStatus>
          <coding>
            <system value="http://terminology.hl7.org/CodeSystem/condition-clinical"/>
            <code value="active"/>
          </coding>
        </clinicalStatus>
        <category>
          <coding>
            <system value="http://terminology.hl7.org/CodeSystem/condition-category"/>
            <code value="problem-list-item"/>
          </coding>
          <text value="Problem"/>
        </category>
        <code>
          <coding>
            <system value="http://snomed.info/sct"/>
            <code value="271737000"/>
            <display value="Anaemia"/>
          </coding>
          <text value="Anaemia"/>
        </code>
        <subject>
          <reference value="urn:uuid:85822a88-55b1-460c-bb7b-e8fc22d8568f"/>
        </subject>
      </Condition>
    </resource>
  </entry>
  <entry>
    <fullUrl value="urn:uuid:289aff01-0b3e-4614-aee8-378d074fc3d2"/>
    <resource>
      <Condition>
        <id value="289aff01-0b3e-4614-aee8-378d074fc3d2"/>
        <meta>
          <profile value="http://hl7.org.au/fhir/ps/StructureDefinition/au-ps-condition"/>
        </meta>
        <clinicalStatus>
          <coding>
            <system value="http://terminology.hl7.org/CodeSystem/condition-clinical"/>
            <code value="resolved"/>
          </coding>
        </clinicalStatus>
        <category>
          <coding>
            <system value="http://terminology.hl7.org/CodeSystem/condition-category"/>
            <code value="problem-list-item"/>
          </coding>
          <text value="Problem"/>
        </category>
        <code>
          <coding>
            <system value="http://snomed.info/sct"/>
            <code value="74400008"/>
            <display value="Appendicitis"/>
          </coding>
          <text value="Appendicitis"/>
        </code>
        <subject>
          <reference value="urn:uuid:85822a88-55b1-460c-bb7b-e8fc22d8568f"/>
        </subject>
      </Condition>
    </resource>
  </entry>
  <entry>
    <fullUrl value="urn:uuid:e6db9bbe-60c3-4f89-8f65-25c58771fe41"/>
    <resource>
      <Condition>
        <id value="e6db9bbe-60c3-4f89-8f65-25c58771fe41"/>
        <meta>
          <profile value="http://hl7.org.au/fhir/ps/StructureDefinition/au-ps-condition"/>
        </meta>
        <clinicalStatus>
          <coding>
            <system value="http://terminology.hl7.org/CodeSystem/condition-clinical"/>
            <code value="resolved"/>
          </coding>
        </clinicalStatus>
        <category>
          <coding>
            <system value="http://terminology.hl7.org/CodeSystem/condition-category"/>
            <code value="problem-list-item"/>
          </coding>
          <text value="Problem"/>
        </category>
        <code>
          <coding>
            <system value="http://snomed.info/sct"/>
            <code value="54150009"/>
            <display value="Upper respiratory tract infection"/>
          </coding>
          <text value="Upper respiratory tract infection"/>
        </code>
        <subject>
          <reference value="urn:uuid:85822a88-55b1-460c-bb7b-e8fc22d8568f"/>
        </subject>
      </Condition>
    </resource>
  </entry>
  <entry>
    <fullUrl value="urn:uuid:dc422222-8b3a-4dd5-96b5-b7e0cf43b477"/>
    <resource>
      <Condition>
        <id value="dc422222-8b3a-4dd5-96b5-b7e0cf43b477"/>
        <meta>
          <profile value="http://hl7.org.au/fhir/ps/StructureDefinition/au-ps-condition"/>
        </meta>
        <clinicalStatus>
          <coding>
            <system value="http://terminology.hl7.org/CodeSystem/condition-clinical"/>
            <code value="resolved"/>
          </coding>
        </clinicalStatus>
        <category>
          <coding>
            <system value="http://terminology.hl7.org/CodeSystem/condition-category"/>
            <code value="problem-list-item"/>
          </coding>
          <text value="Problem"/>
        </category>
        <code>
          <coding>
            <system value="http://snomed.info/sct"/>
            <code value="403190006"/>
            <display value="Epidermal burn of skin"/>
          </coding>
          <text value="First degree burn, Upper shoulders and back"/>
        </code>
        <subject>
          <reference value="urn:uuid:85822a88-55b1-460c-bb7b-e8fc22d8568f"/>
        </subject>
        <note>
          <text value="Severe sunburn, upper shoulders and back"/>
        </note>
      </Condition>
    </resource>
  </entry>
  <entry>
    <fullUrl value="urn:uuid:784ae7d5-22df-442d-b932-0c001720136c"/>
    <resource>
      <Immunization>
        <id value="784ae7d5-22df-442d-b932-0c001720136c"/>
        <meta>
          <profile value="http://hl7.org.au/fhir/ps/StructureDefinition/au-ps-immunization"/>
        </meta>
        <status value="completed"/>
        <vaccineCode>
          <coding>
            <system value="http://snomed.info/sct"/>
            <version value="http://snomed.info/sct/32506021000036107/version/20250131"/>
            <code value="1789171000168108"/>
            <display value="Diphtheria + tetanus + pertussis 5 component adolescent/adult vaccine injection, 0.5 mL syringe"/>
          </coding>
          <text value="Diphtheria + tetanus + pertussis 5 component adolescent/adult vaccine injection, 0.5 mL syringe"/>
        </vaccineCode>
        <patient>
          <reference value="urn:uuid:85822a88-55b1-460c-bb7b-e8fc22d8568f"/>
        </patient>
        <occurrenceDateTime value="2024-10-05"/>
      </Immunization>
    </resource>
  </entry>
  <entry>
    <fullUrl value="urn:uuid:ad82d71b-ca1c-4db6-a726-cc70cf638306"/>
    <resource>
      <Observation>
        <id value="ad82d71b-ca1c-4db6-a726-cc70cf638306"/>
        <meta>
          <profile value="http://hl7.org/fhir/uv/ips/StructureDefinition/Observation-pregnancy-edd-uv-ips"/>
        </meta>
        <status value="final"/>
        <category>
          <coding>
            <system value="http://terminology.hl7.org/CodeSystem/observation-category"/>
            <code value="imaging"/>
            <display value="Imaging"/>
          </coding>
        </category>
        <code>
          <coding>
            <system value="http://snomed.info/sct"/>
            <code value="161714006"/>
            <display value="Estimated date of delivery"/>
          </coding>
          <coding>
            <system value="http://loinc.org"/>
            <code value="11778-8"/>
            <display value="Delivery date Estimated"/>
          </coding>
        </code>
        <subject>
          <reference value="urn:uuid:85822a88-55b1-460c-bb7b-e8fc22d8568f"/>
        </subject>
        <effectiveDateTime value="2024-06-12"/>
        <valueDateTime value="2025-02-03"/>
      </Observation>
    </resource>
  </entry>
  <entry>
    <fullUrl value="urn:uuid:f85ad223-7bed-46f3-893d-e89d6082f9a9"/>
    <resource>
      <Observation>
        <id value="f85ad223-7bed-46f3-893d-e89d6082f9a9"/>
        <meta>
          <profile value="http://hl7.org/fhir/uv/ips/StructureDefinition/Observation-pregnancy-status-uv-ips"/>
        </meta>
        <status value="final"/>
        <category>
          <coding>
            <system value="http://terminology.hl7.org/CodeSystem/observation-category"/>
            <code value="social-history"/>
            <display value="Social History"/>
          </coding>
        </category>
        <code>
          <coding>
            <system value="http://loinc.org"/>
            <code value="82810-3"/>
            <display value="Pregnancy status"/>
          </coding>
        </code>
        <subject>
          <reference value="urn:uuid:85822a88-55b1-460c-bb7b-e8fc22d8568f"/>
        </subject>
        <effectiveDateTime value="2024-06-12"/>
        <valueCodeableConcept>
          <coding>
            <system value="http://snomed.info/sct"/>
            <code value="77386006"/>
            <display value="Pregnant"/>
          </coding>
          <coding>
            <system value="http://loinc.org"/>
            <code value="LA15173-0"/>
            <display value="Pregnant"/>
          </coding>
          <text value="Pregnant"/>
        </valueCodeableConcept>
        <hasMember>
          <reference value="urn:uuid:ad82d71b-ca1c-4db6-a726-cc70cf638306"/>
        </hasMember>
      </Observation>
    </resource>
  </entry>
  <entry>
    <fullUrl value="urn:uuid:afead11c-3bee-4020-af4f-44040abfa961"/>
    <resource>
      <PractitionerRole>
        <id value="afead11c-3bee-4020-af4f-44040abfa961"/>
        <meta>
          <profile value="http://hl7.org.au/fhir/ps/StructureDefinition/au-ps-practitionerrole"/>
        </meta>
        <identifier>
          <type>
            <coding>
              <system value="http://terminology.hl7.org.au/CodeSystem/v2-0203"/>
              <code value="UPIN"/>
            </coding>
            <text value="Medicare Provider Number"/>
          </type>
          <system value="http://ns.electronichealth.net.au/id/medicare-provider-number"/>
          <value value="2448681J"/>
        </identifier>
        <practitioner>
          <reference value="urn:uuid:0c0e2c4f-a748-4cc7-afde-f09bdc2d6fa9"/>
        </practitioner>
        <organization>
          <reference value="urn:uuid:14292353-98f0-43b3-a25b-406baf3f9175"/>
        </organization>
        <code>
          <coding>
            <system value="http://www.abs.gov.au/ausstats/abs@.nsf/mf/1220.0"/>
            <code value="253111"/>
            <display value="General Practitioner"/>
          </coding>
          <coding>
            <system value="http://snomed.info/sct"/>
            <code value="62247001"/>
          </coding>
        </code>
        <specialty>
          <coding>
            <system value="http://snomed.info/sct"/>
            <code value="408443003"/>
          </coding>
        </specialty>
        <telecom>
          <system value="phone"/>
          <value value="0270105673"/>
          <use value="work"/>
        </telecom>
        <telecom>
          <system value="email"/>
          <value value="ginger.burrows@bungabbeemc.example.com.au"/>
          <use value="work"/>
        </telecom>
      </PractitionerRole>
    </resource>
  </entry>
  <entry>
    <fullUrl value="urn:uuid:0c0e2c4f-a748-4cc7-afde-f09bdc2d6fa9"/>
    <resource>
      <Practitioner>
        <id value="0c0e2c4f-a748-4cc7-afde-f09bdc2d6fa9"/>
        <meta>
          <profile value="http://hl7.org.au/fhir/ps/StructureDefinition/au-ps-practitioner"/>
        </meta>
        <identifier>
          <type>
            <coding>
              <system value="http://terminology.hl7.org/CodeSystem/v2-0203"/>
              <code value="NPI"/>
              <display value="National provider identifier"/>
            </coding>
            <text value="HPI-I"/>
          </type>
          <system value="http://ns.electronichealth.net.au/id/hi/hpii/1.0"/>
          <value value="8003618233385011"/>
        </identifier>
        <name>
          <family value="BURROWS"/>
          <given value="Ginger"/>
        </name>
        <telecom>
          <system value="phone"/>
          <value value="0270105673"/>
          <use value="work"/>
        </telecom>
        <telecom>
          <system value="email"/>
          <value value="ginger.burrows@bungabbeemc.example.com.au"/>
        </telecom>
        <address>
          <line value="189 Bay Esp"/>
          <city value="Bungabbee"/>
          <state value="NSW"/>
          <postalCode value="2480"/>
        </address>
      </Practitioner>
    </resource>
  </entry>
  <entry>
    <fullUrl value="urn:uuid:14292353-98f0-43b3-a25b-406baf3f9175"/>
    <resource>
      <Organization>
        <id value="14292353-98f0-43b3-a25b-406baf3f9175"/>
        <meta>
          <profile value="http://hl7.org.au/fhir/ps/StructureDefinition/au-ps-organization"/>
        </meta>
        <identifier>
          <type>
            <coding>
              <system value="http://terminology.hl7.org.au/CodeSystem/v2-0203"/>
              <code value="NOI"/>
            </coding>
            <text value="HPI-O"/>
          </type>
          <system value="http://ns.electronichealth.net.au/id/hi/hpio/1.0"/>
          <value value="8003624900039170"/>
        </identifier>
        <identifier>
          <type>
            <coding>
              <system value="http://terminology.hl7.org/CodeSystem/v2-0203"/>
              <code value="XX"/>
            </coding>
            <text value="ABN"/>
          </type>
          <system value="http://hl7.org.au/id/abn"/>
          <value value="81156248664"/>
        </identifier>
        <type>
          <coding>
            <system value="http://www.abs.gov.au/ausstats/abs@.nsf/mf/1292.0"/>
            <code value="8511"/>
            <display value="General Practice Medical Services"/>
          </coding>
          <coding>
            <system value="http://snomed.info/sct"/>
            <code value="788007007"/>
            <display value="General practice service"/>
          </coding>
          <text value="General practice medical clinic service"/>
        </type>
        <name value="Bungabbee Medical Clinic"/>
        <telecom>
          <system value="phone"/>
          <value value="0255506327"/>
          <use value="work"/>
        </telecom>
        <telecom>
          <system value="email"/>
          <value value="info@bungabbeemc.example.com.au"/>
        </telecom>
        <address>
          <line value="158 Toby Ave"/>
          <city value="Bungabbee"/>
          <state value="NSW"/>
          <postalCode value="2480"/>
        </address>
      </Organization>
    </resource>
  </entry>
  <entry>
    <fullUrl value="urn:uuid:46624cc1-7d2e-4367-aa82-85d097ac423f"/>
    <resource>
      <Immunization>
        <id value="46624cc1-7d2e-4367-aa82-85d097ac423f"/>
        <meta>
          <profile value="http://hl7.org.au/fhir/ps/StructureDefinition/au-ps-immunization"/>
        </meta>
        <status value="completed"/>
        <vaccineCode>
          <coding>
            <system value="https://www.humanservices.gov.au/organisations/health-professionals/enablers/air-vaccine-code-formats"/>
            <code value="PANVAX"/>
          </coding>
          <text value="Panvax"/>
        </vaccineCode>
        <patient>
          <reference value="urn:uuid:85822a88-55b1-460c-bb7b-e8fc22d8568f"/>
        </patient>
        <occurrenceDateTime value="2022-06-01"/>
        <primarySource value="true"/>
      </Immunization>
    </resource>
  </entry>
  <entry>
    <fullUrl value="urn:uuid:5711e015-890f-489d-9f8f-49d9a7ff95cd"/>
    <resource>
      <Immunization>
        <id value="5711e015-890f-489d-9f8f-49d9a7ff95cd"/>
        <meta>
          <profile value="http://hl7.org.au/fhir/ps/StructureDefinition/au-ps-immunization"/>
        </meta>
        <status value="completed"/>
        <vaccineCode>
          <coding>
            <system value="https://www.humanservices.gov.au/organisations/health-professionals/enablers/air-vaccine-code-formats"/>
            <code value="PANVAX"/>
          </coding>
          <text value="Panvax"/>
        </vaccineCode>
        <patient>
          <reference value="urn:uuid:85822a88-55b1-460c-bb7b-e8fc22d8568f"/>
        </patient>
        <occurrenceDateTime value="2021-05-17"/>
        <primarySource value="true"/>
      </Immunization>
    </resource>
  </entry>
  <entry>
    <fullUrl value="urn:uuid:62eb70e3-e814-4785-80d3-8aa45b1fc367"/>
    <resource>
      <Immunization>
        <id value="62eb70e3-e814-4785-80d3-8aa45b1fc367"/>
        <meta>
          <profile value="http://hl7.org.au/fhir/ps/StructureDefinition/au-ps-immunization"/>
        </meta>
        <status value="completed"/>
        <vaccineCode>
          <coding>
            <system value="https://www.humanservices.gov.au/organisations/health-professionals/enablers/air-vaccine-code-formats"/>
            <code value="PANVAX"/>
          </coding>
          <text value="Panvax"/>
        </vaccineCode>
        <patient>
          <reference value="urn:uuid:85822a88-55b1-460c-bb7b-e8fc22d8568f"/>
        </patient>
        <occurrenceDateTime value="2023-05-15"/>
        <primarySource value="true"/>
        <note>
          <text value="Pt reported localised redness and swelling post previous flu vax last year. Monitor for rxn."/>
        </note>
      </Immunization>
    </resource>
  </entry>
  <entry>
    <fullUrl value="urn:uuid:2f3537b2-f50c-4a2a-ab92-30fdcfe5fd96"/>
    <resource>
      <Immunization>
        <id value="2f3537b2-f50c-4a2a-ab92-30fdcfe5fd96"/>
        <meta>
          <profile value="http://hl7.org.au/fhir/ps/StructureDefinition/au-ps-immunization"/>
        </meta>
        <extension url="http://hl7.org.au/fhir/StructureDefinition/vaccine-serial-number">
          <valueString value="SERIAL1234"/>
        </extension>
        <status value="completed"/>
        <vaccineCode>
          <coding>
            <system value="https://www.humanservices.gov.au/organisations/health-professionals/enablers/air-vaccine-code-formats"/>
            <code value="PANVAX"/>
            <display value="Panvax"/>
          </coding>
          <text value="Panvax"/>
        </vaccineCode>
        <patient>
          <reference value="urn:uuid:85822a88-55b1-460c-bb7b-e8fc22d8568f"/>
        </patient>
        <occurrenceDateTime value="2024-05-05"/>
        <primarySource value="true"/>
        <lotNumber value="lot001"/>
      </Immunization>
    </resource>
  </entry>
  <entry>
    <fullUrl value="urn:uuid:c4e7d351-cd85-435d-9fa5-2db04108651f"/>
    <resource>
      <Immunization>
        <id value="c4e7d351-cd85-435d-9fa5-2db04108651f"/>
        <meta>
          <profile value="http://hl7.org.au/fhir/ps/StructureDefinition/au-ps-immunization"/>
        </meta>
        <status value="completed"/>
        <vaccineCode>
          <coding>
            <system value="https://www.humanservices.gov.au/organisations/health-professionals/enablers/air-vaccine-code-formats"/>
            <code value="PANVAX"/>
            <display value="Panvax"/>
          </coding>
          <text value="Panvax"/>
        </vaccineCode>
        <patient>
          <reference value="urn:uuid:85822a88-55b1-460c-bb7b-e8fc22d8568f"/>
        </patient>
        <occurrenceDateTime value="2020-05-03"/>
        <primarySource value="true"/>
      </Immunization>
    </resource>
  </entry>
  <entry>
    <fullUrl value="urn:uuid:97767fb5-3be7-4d16-9ee8-76c47a4ab0ce"/>
    <resource>
      <Immunization>
        <id value="97767fb5-3be7-4d16-9ee8-76c47a4ab0ce"/>
        <meta>
          <profile value="http://hl7.org.au/fhir/ps/StructureDefinition/au-ps-immunization"/>
        </meta>
        <extension url="http://hl7.org.au/fhir/StructureDefinition/vaccine-serial-number">
          <valueString value="vNo1111"/>
        </extension>
        <status value="completed"/>
        <vaccineCode>
          <coding>
            <system value="https://www.humanservices.gov.au/organisations/health-professionals/enablers/air-vaccine-code-formats"/>
            <code value="MODERN"/>
          </coding>
          <coding>
            <system value="http://snomed.info/sct"/>
            <code value="1730491000168104"/>
            <display value="Spikevax 50 microgram/0.5 mL injection, 0.5 mL syringe"/>
          </coding>
          <text value="COVID-19 mRNA-1273 Vaccine (Moderna) injection, 0.5 mL syringe"/>
        </vaccineCode>
        <patient>
          <reference value="urn:uuid:85822a88-55b1-460c-bb7b-e8fc22d8568f"/>
        </patient>
        <occurrenceDateTime value="2023-05-15"/>
        <recorded value="2022-02-14"/>
        <primarySource value="true"/>
        <manufacturer>
          <display value="ModernaTX, Inc."/>
        </manufacturer>
        <lotNumber value="RX00000F"/>
      </Immunization>
    </resource>
  </entry>
  <entry>
    <fullUrl value="urn:uuid:40a0b552-b0ea-4283-b33e-a5d2e26ed20f"/>
    <resource>
      <Immunization>
        <id value="40a0b552-b0ea-4283-b33e-a5d2e26ed20f"/>
        <meta>
          <profile value="http://hl7.org.au/fhir/ps/StructureDefinition/au-ps-immunization"/>
        </meta>
        <extension url="http://hl7.org.au/fhir/StructureDefinition/vaccine-serial-number">
          <valueString value="vNo1111"/>
        </extension>
        <status value="completed"/>
        <vaccineCode>
          <coding>
            <system value="https://www.humanservices.gov.au/organisations/health-professionals/enablers/air-vaccine-code-formats"/>
            <code value="COMIRN"/>
          </coding>
          <coding>
            <system value="http://snomed.info/sct"/>
            <code value="1525011000168107"/>
            <display value="Comirnaty"/>
          </coding>
          <text value="Pfizer Comirnaty"/>
        </vaccineCode>
        <patient>
          <reference value="urn:uuid:85822a88-55b1-460c-bb7b-e8fc22d8568f"/>
        </patient>
        <occurrenceDateTime value="2021-07-20"/>
        <primarySource value="true"/>
        <manufacturer>
          <display value="Pfizer Australia Ltd"/>
        </manufacturer>
        <lotNumber value="300000000P"/>
        <site>
          <coding>
            <system value="http://snomed.info/sct"/>
            <code value="368208006"/>
          </coding>
          <text value="Left upper arm"/>
        </site>
      </Immunization>
    </resource>
  </entry>
  <entry>
    <fullUrl value="urn:uuid:fac8c42e-4d2a-4cf5-bcc6-831c60e8230e"/>
    <resource>
      <Immunization>
        <id value="fac8c42e-4d2a-4cf5-bcc6-831c60e8230e"/>
        <meta>
          <profile value="http://hl7.org.au/fhir/ps/StructureDefinition/au-ps-immunization"/>
        </meta>
        <identifier>
          <system value="urn:ietf:rfc:3986"/>
          <value value="urn:uuid:475db616-dfd5-43f3-b935-9f582233a38d"/>
        </identifier>
        <status value="completed"/>
        <vaccineCode>
          <coding>
            <system value="https://www.humanservices.gov.au/organisations/health-professionals/enablers/air-vaccine-code-formats"/>
            <code value="COMIRN"/>
          </coding>
          <text value="Pfizer Comirnaty"/>
        </vaccineCode>
        <patient>
          <reference value="urn:uuid:85822a88-55b1-460c-bb7b-e8fc22d8568f"/>
        </patient>
        <occurrenceDateTime value="2022-02-02"/>
        <primarySource value="true"/>
        <manufacturer>
          <display value="Pfizer Australia Ltd"/>
        </manufacturer>
        <lotNumber value="500000000P"/>
        <site>
          <coding>
            <system value="http://snomed.info/sct"/>
            <code value="368208006"/>
          </coding>
          <text value="Left upper arm"/>
        </site>
      </Immunization>
    </resource>
  </entry>
  <entry>
    <fullUrl value="urn:uuid:eb1f812e-41c6-4f8d-b9de-573428a94994"/>
    <resource>
      <Immunization>
        <id value="eb1f812e-41c6-4f8d-b9de-573428a94994"/>
        <meta>
          <profile value="http://hl7.org.au/fhir/ps/StructureDefinition/au-ps-immunization"/>
        </meta>
        <status value="completed"/>
        <vaccineCode>
          <coding>
            <system value="https://www.humanservices.gov.au/organisations/health-professionals/enablers/air-vaccine-code-formats"/>
            <code value="COMIRN"/>
          </coding>
          <coding>
            <system value="http://snomed.info/sct"/>
            <code value="1525011000168107"/>
            <display value="Comirnaty"/>
          </coding>
          <text value="Pfizer Comirnaty"/>
        </vaccineCode>
        <patient>
          <reference value="urn:uuid:85822a88-55b1-460c-bb7b-e8fc22d8568f"/>
        </patient>
        <occurrenceDateTime value="2021-04-27"/>
        <primarySource value="true"/>
        <manufacturer>
          <display value="Pfizer Australia Ltd"/>
        </manufacturer>
        <lotNumber value="200000000P"/>
        <site>
          <coding>
            <system value="http://snomed.info/sct"/>
            <code value="368208006"/>
          </coding>
          <text value="Left upper arm"/>
        </site>
      </Immunization>
    </resource>
  </entry>
  <entry>
    <fullUrl value="urn:uuid:5f1b9790-4892-4af3-9b76-3cb4f854a5b1"/>
    <resource>
      <Observation>
        <id value="5f1b9790-4892-4af3-9b76-3cb4f854a5b1"/>
        <meta>
          <profile value="http://hl7.org.au/fhir/core/StructureDefinition/au-core-diagnosticresult-path"/>
          <profile value="http://hl7.org/fhir/uv/ips/StructureDefinition/Observation-results-laboratory-pathology-uv-ips"/>
        </meta>
        <status value="final"/>
        <category>
          <coding>
            <system value="http://terminology.hl7.org/CodeSystem/observation-category"/>
            <code value="laboratory"/>
            <display value="Laboratory"/>
          </coding>
        </category>
        <code>
          <coding>
            <system value="http://snomed.info/sct"/>
            <code value="113076002"/>
            <display value="Glucose tolerance test"/>
          </coding>
          <coding>
            <system value="http://loinc.org"/>
            <code value="14995-5"/>
            <display value="Glucose [Moles/volume] in Serum or Plasma --2 hours post 75 g glucose PO"/>
          </coding>
          <coding>
            <system value="http://snomed.info/sct"/>
            <code value="123030002"/>
            <display value="2 hours (qualifier value)"/>
          </coding>
          <text value="Glucose Tolerance Test (GTT) 2 hour"/>
        </code>
        <subject>
          <reference value="urn:uuid:85822a88-55b1-460c-bb7b-e8fc22d8568f"/>
        </subject>
        <effectiveDateTime value="2024-10-21"/>
        <performer>
          <extension url="http://hl7.org/fhir/StructureDefinition/data-absent-reason">
            <valueCode value="unknown"/>
          </extension>
        </performer>
        <valueQuantity>
          <value value="8.6"/>
          <system value="http://unitsofmeasure.org"/>
          <code value="mmol/L"/>
        </valueQuantity>
      </Observation>
    </resource>
  </entry>
  <entry>
    <fullUrl value="urn:uuid:1bbd2e05-161d-4030-975c-0cca3ef97cdb"/>
    <resource>
      <Observation>
        <id value="1bbd2e05-161d-4030-975c-0cca3ef97cdb"/>
        <meta>
          <profile value="http://hl7.org.au/fhir/core/StructureDefinition/au-core-diagnosticresult-path"/>
          <profile value="http://hl7.org/fhir/uv/ips/StructureDefinition/Observation-results-laboratory-pathology-uv-ips"/>
        </meta>
        <status value="final"/>
        <category>
          <coding>
            <system value="http://terminology.hl7.org/CodeSystem/observation-category"/>
            <code value="laboratory"/>
            <display value="Laboratory"/>
          </coding>
        </category>
        <code>
          <coding>
            <system value="http://snomed.info/sct"/>
            <code value="113076002"/>
            <display value="Glucose tolerance test"/>
          </coding>
          <coding>
            <system value="http://snomed.info/sct"/>
            <code value="792805006"/>
            <display value="Fasting (regime/therapy)"/>
          </coding>
          <coding>
            <system value="http://loinc.org"/>
            <code value="14996-3"/>
            <display value="Glucose [Moles/volume] in Serum or Plasma --pre 75 g glucose PO"/>
          </coding>
          <text value="Glucose Tolerance Test (GTT) Fasting"/>
        </code>
        <subject>
          <reference value="urn:uuid:85822a88-55b1-460c-bb7b-e8fc22d8568f"/>
        </subject>
        <effectiveDateTime value="2024-10-21"/>
        <performer>
          <extension url="http://hl7.org/fhir/StructureDefinition/data-absent-reason">
            <valueCode value="unknown"/>
          </extension>
        </performer>
        <valueQuantity>
          <value value="5.3"/>
          <system value="http://unitsofmeasure.org"/>
          <code value="mmol/L"/>
        </valueQuantity>
      </Observation>
    </resource>
  </entry>
  <entry>
    <fullUrl value="urn:uuid:27060cbf-e30e-4091-bd64-7d4ef40916ac"/>
    <resource>
      <Observation>
        <id value="27060cbf-e30e-4091-bd64-7d4ef40916ac"/>
        <meta>
          <profile value="http://hl7.org.au/fhir/core/StructureDefinition/au-core-diagnosticresult-path"/>
          <profile value="http://hl7.org/fhir/uv/ips/StructureDefinition/Observation-results-laboratory-pathology-uv-ips"/>
        </meta>
        <status value="final"/>
        <category>
          <coding>
            <system value="http://terminology.hl7.org/CodeSystem/observation-category"/>
            <code value="laboratory"/>
            <display value="Laboratory"/>
          </coding>
        </category>
        <code>
          <coding>
            <system value="http://snomed.info/sct"/>
            <code value="113076002"/>
            <display value="Glucose tolerance test (procedure)"/>
          </coding>
          <coding>
            <system value="http://loinc.org"/>
            <code value="51597-3"/>
            <display value="Glucose [Moles/volume] in Serum or Plasma --1 hour post 75 g glucose PO"/>
          </coding>
          <text value="Glucose Tolerance Test (GTT) 1 hour"/>
        </code>
        <subject>
          <reference value="urn:uuid:85822a88-55b1-460c-bb7b-e8fc22d8568f"/>
        </subject>
        <effectiveDateTime value="2024-10-21"/>
        <performer>
          <extension url="http://hl7.org/fhir/StructureDefinition/data-absent-reason">
            <valueCode value="unknown"/>
          </extension>
        </performer>
        <valueQuantity>
          <value value="10"/>
          <system value="http://unitsofmeasure.org"/>
          <code value="mmol/L"/>
        </valueQuantity>
      </Observation>
    </resource>
  </entry>
  <entry>
    <fullUrl value="urn:uuid:fc061f59-5410-41e9-945e-3f59664e8611"/>
    <resource>
      <Observation>
        <id value="fc061f59-5410-41e9-945e-3f59664e8611"/>
        <meta>
          <profile value="http://hl7.org.au/fhir/core/StructureDefinition/au-core-diagnosticresult-path"/>
          <profile value="http://hl7.org/fhir/uv/ips/StructureDefinition/Observation-results-laboratory-pathology-uv-ips"/>
        </meta>
        <status value="final"/>
        <category>
          <coding>
            <system value="http://terminology.hl7.org/CodeSystem/observation-category"/>
            <code value="laboratory"/>
            <display value="Laboratory"/>
          </coding>
        </category>
        <code>
          <coding>
            <system value="http://loinc.org"/>
            <code value="4548-4"/>
            <display value="Hemoglobin A1c/Hemoglobin.total in Blood"/>
          </coding>
          <text value="Haemoglobin A1c"/>
        </code>
        <subject>
          <reference value="urn:uuid:85822a88-55b1-460c-bb7b-e8fc22d8568f"/>
        </subject>
        <effectiveDateTime value="2024-06-14"/>
        <performer>
          <extension url="http://hl7.org/fhir/StructureDefinition/data-absent-reason">
            <valueCode value="unknown"/>
          </extension>
        </performer>
        <valueQuantity>
          <value value="5.8"/>
          <system value="http://unitsofmeasure.org"/>
          <code value="%"/>
        </valueQuantity>
      </Observation>
    </resource>
  </entry>
  <entry>
    <fullUrl value="urn:uuid:8924f910-53b3-4125-b0f2-58d0068f8983"/>
    <resource>
      <Observation>
        <id value="8924f910-53b3-4125-b0f2-58d0068f8983"/>
        <meta>
          <profile value="http://hl7.org.au/fhir/core/StructureDefinition/au-core-smokingstatus"/>
          <profile value="http://hl7.org/fhir/uv/ips/StructureDefinition/Observation-tobaccouse-uv-ips"/>
        </meta>
        <status value="final"/>
        <category>
          <coding>
            <system value="http://terminology.hl7.org/CodeSystem/observation-category"/>
            <code value="social-history"/>
            <display value="Social History"/>
          </coding>
          <text value="Social History"/>
        </category>
        <code>
          <coding>
            <system value="http://snomed.info/sct"/>
            <code value="1747861000168109"/>
          </coding>
          <coding>
            <system value="http://loinc.org"/>
            <code value="72166-2"/>
          </coding>
          <text value="Smoking status"/>
        </code>
        <subject>
          <reference value="urn:uuid:85822a88-55b1-460c-bb7b-e8fc22d8568f"/>
        </subject>
        <effectiveDateTime value="2024-10-28"/>
        <valueCodeableConcept>
          <coding>
            <system value="http://snomed.info/sct"/>
            <code value="266919005"/>
          </coding>
          <text value="Lifetime non-smoker"/>
        </valueCodeableConcept>
      </Observation>
    </resource>
  </entry>
  <entry>
    <fullUrl value="urn:uuid:40c3b2a7-e673-4f83-8dd8-2b112a88775e"/>
    <resource>
      <Device>
        <id value="40c3b2a7-e673-4f83-8dd8-2b112a88775e"/>
        <identifier>
          <system value="http://example.com/CIS-ID"/>
          <value value="12345"/>
        </identifier>
        <manufacturer value="Some Clinical Information System Manufacturer"/>
        <deviceName>
          <name value="Name of Device"/>
          <type value="model-name"/>
        </deviceName>
        <modelNumber value="2.0.1"/>
        <type>
          <coding>
            <system value="http://snomed.info/sct"/>
            <code value="706593004"/>
            <display value="Clinical information system"/>
          </coding>
        </type>
      </Device>
    </resource>
  </entry>
  <signature>
    <type>
      <system>urn:iso-astm:E1762-95:2013</system>
      <code>1.2.840.10065.1.12.1.5</code>
      <display>Verification Signature</display>
    </type>
    <when>2024-11-07T10:02:11.269+11:00</when>
    <who>
      <reference>urn:uuid:40c3b2a7-e673-4f83-8dd8-2b112a88775e</reference>
    </who>
    <targetFormat>application/fhir+xml</targetFormat>
    <sigFormat>application/jose</sigFormat>
    <data value="eyJhbGciOiJSUzI1NiIsInR5cCI6IkpXVCJ9..X4nU3fCmHl9KoICUadV1pyWK5DwiHbjaXIKkcl1Ew6NEIEMkGn-Ef2Eed3npP4O67CqcXPM_0L283qc7Dq74wsVpJg48jkZtsi1beQ6duw4cJTIzB5HpmEqw_n1jCHYr9hJU-e6FJDhu0G9MgXGHR_8QxE08ER6VmuXYCbdBItIPJFY5iPsaq-HTasP_AfYDpjfb-fNBEo9exzV_0yyo0HzQnXXKinP0ldTE0PBbcXlq8PCCNPXM4ZhLlWtYkTivvpu7qr-XqCkfaUk1NJ2mpN6xMf8H8_Mv-5CtT_Odkx3Y7VTo3vGX9en0vy8mzVJxj216sDdTJbxTK0TyT6NAeA"/>
  </signature>
</Bundle>