{
  "resourceType": "Bundle",
  "id": "aups-referral-endoconsult-autogen",
  "meta": {
    "profile": [
      "http://hl7.org.au/fhir/ps/StructureDefinition/au-ps-bundle"
    ]
  },
  "identifier": {
    "system": "urn:ietf:rfc:3986",
    "value": "urn:uuid:b1398367-c580-412f-a34e-a09bab5d0bf2"
  },
  "type": "document",
  "timestamp": "2024-11-07T10:02:11.269+11:00",
  "entry": [
    {
      "fullUrl": "urn:uuid:ecf18329-b2ae-4648-8888-01aff6dc8172",
      "resource": {
        "resourceType": "Composition",
        "meta": {
          "profile": [
            "http://hl7.org.au/fhir/ps/StructureDefinition/au-ps-composition"
          ]
        },
        "status": "final",
        "type": {
          "coding": [
            {
              "system": "http://loinc.org",
              "code": "60591-5"
            }
          ]
        },
        "subject": {
          "reference": "urn:uuid:85822a88-55b1-460c-bb7b-e8fc22d8568f"
        },
        "date": "2024-11-07T10:02:10.868+11:00",
        "author": [
          {
            "reference": "urn:uuid:40c3b2a7-e673-4f83-8dd8-2b112a88775e"
          }
        ],
        "title": "Patient Summary for Joyce Johnson as of 07 NOV 2024",
        "custodian": {
          "reference": "urn:uuid:14292353-98f0-43b3-a25b-406baf3f9175"
        },
        "event": [
          {
            "code": [
              {
                "coding": [
                  {
                    "system": "http://terminology.hl7.org/CodeSystem/v3-ActClass",
                    "code": "PCPR"
                  }
                ]
              }
            ],
            "period": {
              "end": "2024-11-07T10:02:10+11:00"
            }
          }
        ],
        "section": [
          {
            "title": "Allergies and Intolerances",
            "code": {
              "coding": [
                {
                  "system": "http://loinc.org",
                  "code": "48765-2"
                }
              ]
            },
            "text": {
              "status": "generated",
              "div": "<div xmlns=\"http://www.w3.org/1999/xhtml\">\n              <table border=\"1\">\n                <thead>\n                  <tr>\n                    <th>Type</th>\n                    <th>Substance</th>\n                    <th>Date/time of onset of first reaction</th>\n                    <th>Manifestation</th>\n                    <th>Severity of reaction</th>\n                    <th>Comment</th>\n                  </tr>\n                </thead>\n                <tbody>\n                  <tr>\n                    <td>Allergy</td>\n                    <td>Prawns</td>\n                    <td>18:50 02/11/2024</td>\n                    <td>Itchy throat</td>\n                    <td>Mild</td>\n                    <td>Pt stated had prawns with dinner and noticed itchy throat, never experienced this before</td>\n                  </tr>\n                </tbody>\n              </table>\n            </div>"
            },
            "entry": [
              {
                "reference": "urn:uuid:f7bd83e4-2a4e-40be-8467-8a29b667ef46"
              }
            ]
          },
          {
            "title": "Medication Summary",
            "code": {
              "coding": [
                {
                  "system": "http://loinc.org",
                  "code": "10160-0"
                }
              ]
            },
            "text": {
              "status": "generated",
              "div": "<div xmlns=\"http://www.w3.org/1999/xhtml\">\n              <table border=\"1\">\n                <thead>\n                  <tr>\n                    <th>Medicine</th>\n                    <th>Dose</th>\n                    <th>Clinical Indication</th>\n                    <th>Status</th>\n                    <th>Last Updated</th>\n                    <th>Comment</th>\n                  </tr>\n                </thead>\n                <tbody>\n                  <tr>\n                    <td>Prenatal vitamins</td>\n                    <td>1 tablet daily</td>\n                    <td></td>\n                    <td>Active</td>\n                    <td>28/10/2024</td>\n                    <td>Pt prefers Blackmores</td>\n                  </tr>\n                  <tr>\n                    <td>Insulin (Humulin N)</td>\n                    <td>10 units subcutaneously in the morning and evening</td>\n                    <td></td>\n                    <td>Active</td>\n                    <td>28/10/2024</td>\n                    <td></td>\n                  </tr>\n                  <tr>\n                    <td>Insulin (Humulin R)</td>\n                    <td>5 units subcutaneously before each meal</td>\n                    <td></td>\n                    <td>Active</td>\n                    <td>28/10/2024</td>\n                    <td></td>\n                  </tr>\n                  <tr>\n                    <td>Metformin</td>\n                    <td>500mg twice daily</td>\n                    <td></td>\n                    <td>Active</td>\n                    <td>28/10/2024</td>\n                    <td></td>\n                  </tr>\n                  <tr>\n                    <td>Trimethoprim</td>\n                    <td>300mg daily for 3 days</td>\n                    <td>Urinary tract infection (UTI)</td>\n                    <td>Active</td>\n                    <td>04/11/2024</td>\n                    <td></td>\n                  </tr>\n                </tbody>\n              </table>\n            </div>"
            },
            "entry": [
              {
                "reference": "urn:uuid:7193cc2f-d03e-42cb-ab55-4130904505d5"
              },
              {
                "reference": "urn:uuid:1c4dd2b6-a9ee-4ba3-9b37-c1aff277c417"
              },
              {
                "reference": "urn:uuid:166c2afe-c6fb-4928-88f0-1c1a1e5e65cd"
              },
              {
                "reference": "urn:uuid:05292a9c-2bc9-43a7-b935-0a61ede063da"
              },
              {
                "reference": "urn:uuid:cbe37f4b-e84b-4f34-8490-f21da27f1aa9"
              }
            ]
          },
          {
            "title": "Problem list",
            "code": {
              "coding": [
                {
                  "system": "http://loinc.org",
                  "code": "11450-4"
                }
              ]
            },
            "text": {
              "status": "generated",
              "div": "<div xmlns=\"http://www.w3.org/1999/xhtml\">\n              <table border=\"1\">\n                <thead>\n                  <tr>\n                    <th>Problem/Diagnosis</th>\n                    <th>Status</th>\n                    <th>Comment</th>\n                  </tr>\n                </thead>\n                <tbody>\n                  <tr>\n                    <td>Gestational diabetes</td>\n                    <td>Active</td>\n                    <td>Recent diagnosis, referring to Endo &amp; Dietitian</td>\n                  </tr>\n                  <tr>\n                    <td>Anaemia</td>\n                    <td>Active</td>\n                    <td></td>\n                  </tr>\n                  <tr>\n                    <td>Urinary tract infection (UTI)</td>\n                    <td>Active</td>\n                    <td>Patient reported symptoms of UTI. MSU to confirm</td>\n                  </tr>\n                </tbody>\n              </table>\n            </div>"
            },
            "entry": [
              {
                "reference": "urn:uuid:cb647933-b18c-42ef-a1c8-ae137921ba83"
              },
              {
                "reference": "urn:uuid:78f75926-3ee1-44a7-9424-6178d905af63"
              },
              {
                "reference": "urn:uuid:07034a67-66ce-4d29-95ab-1ef7e964a873"
              }
            ]
          },
          {
            "title": "History of Immunizations",
            "code": {
              "coding": [
                {
                  "system": "http://loinc.org",
                  "code": "11369-6"
                }
              ]
            },
            "text": {
              "status": "generated",
              "div": "<div xmlns=\"http://www.w3.org/1999/xhtml\">\n              <table border=\"1\">\n                <thead>\n                  <tr>\n                    <th>Vaccine</th>\n                    <th>Date of administration</th>\n                    <th>Comment</th>\n                  </tr>\n                </thead>\n                <tbody>\n                  <tr>\n                    <td>Diphtheria + tetanus + pertussis 5 component adolescent/adult vaccine injection, 0.5 mL syringe</td>\n                    <td>05/10/2024</td>\n                    <td></td>\n                  </tr>\n                  <tr>\n                    <td>Influenza vaccine</td>\n                    <td>05/05/2024</td>\n                    <td></td>\n                  </tr>\n                  <tr>\n                    <td>Influenza vaccine</td>\n                    <td>15/05/2023</td>\n                    <td>Pt reported localised redness and swelling post previous flu vax last year. Monitor for rxn.</td>\n                  </tr>\n                  <tr>\n                    <td>COVID-19 mRNA-1273 Vaccine (Moderna) injection, 0.5 mL syringe</td>\n                    <td>15/05/2023</td>\n                    <td></td>\n                  </tr>\n                  <tr>\n                    <td>Influenza vaccine</td>\n                    <td>01/06/2022</td>\n                    <td></td>\n                  </tr>\n                  <tr>\n                    <td>Covid vaccine - Pfizer</td>\n                    <td>02/02/2022</td>\n                    <td></td>\n                  </tr>\n                  <tr>\n                    <td>Covid vaccine - Pfizer</td>\n                    <td>20/07/2021</td>\n                    <td></td>\n                  </tr>\n                  <tr>\n                    <td>Influenza vaccine</td>\n                    <td>17/05/2021</td>\n                    <td></td>\n                  </tr>\n                  <tr>\n                    <td>Covid vaccine - Pfizer</td>\n                    <td>27/04/2021</td>\n                    <td></td>\n                  </tr>\n                  <tr>\n                    <td>Influenza vaccine</td>\n                    <td>03/05/2020</td>\n                    <td></td>\n                  </tr>\n                </tbody>\n              </table>\n            </div>"
            },
            "entry": [
              {
                "reference": "urn:uuid:784ae7d5-22df-442d-b932-0c001720136c"
              },
              {
                "reference": "urn:uuid:46624cc1-7d2e-4367-aa82-85d097ac423f"
              },
              {
                "reference": "urn:uuid:5711e015-890f-489d-9f8f-49d9a7ff95cd"
              },
              {
                "reference": "urn:uuid:97767fb5-3be7-4d16-9ee8-76c47a4ab0ce"
              },
              {
                "reference": "urn:uuid:62eb70e3-e814-4785-80d3-8aa45b1fc367"
              },
              {
                "reference": "urn:uuid:fac8c42e-4d2a-4cf5-bcc6-831c60e8230e"
              },
              {
                "reference": "urn:uuid:40a0b552-b0ea-4283-b33e-a5d2e26ed20f"
              },
              {
                "reference": "urn:uuid:2f3537b2-f50c-4a2a-ab92-30fdcfe5fd96"
              },
              {
                "reference": "urn:uuid:eb1f812e-41c6-4f8d-b9de-573428a94994"
              },
              {
                "reference": "urn:uuid:c4e7d351-cd85-435d-9fa5-2db04108651f"
              }
            ]
          },
          {
            "title": "Past Medical History (Problems)",
            "code": {
              "coding": [
                {
                  "system": "http://loinc.org",
                  "code": "11348-0"
                }
              ]
            },
            "text": {
              "status": "generated",
              "div": "<div xmlns=\"http://www.w3.org/1999/xhtml\">\n              <table border=\"1\">\n                <thead>\n                  <tr>\n                    <th>Problem/Diagnosis</th>\n                    <th>Status</th>\n                    <th>Onset Date</th>\n                    <th>Comment</th>\n                  </tr>\n                </thead>\n                <tbody>\n                  <tr>\n                    <td>Appendicitis</td>\n                    <td>Resolved</td>\n                    <td>03/2000</td>\n                    <td></td>\n                  </tr>\n                  <tr>\n                    <td>Upper respiratory tract infection</td>\n                    <td>Resolved</td>\n                    <td>10/2022</td>\n                    <td></td>\n                  </tr>\n                  <tr>\n                    <td>First degree burn, Upper shoulders and back</td>\n                    <td>Resolved</td>\n                    <td>02/01/2005</td>\n                    <td>Severe sunburn, upper shoulders and back</td>\n                  </tr>\n                </tbody>\n              </table>\n            </div>"
            },
            "entry": [
              {
                "reference": "urn:uuid:289aff01-0b3e-4614-aee8-378d074fc3d2"
              },
              {
                "reference": "urn:uuid:e6db9bbe-60c3-4f89-8f65-25c58771fe41"
              },
              {
                "reference": "urn:uuid:dc422222-8b3a-4dd5-96b5-b7e0cf43b477"
              }
            ]
          },
          {
            "title": "Pregnancy Information",
            "code": {
              "coding": [
                {
                  "system": "http://loinc.org",
                  "code": "10162-6"
                }
              ]
            },
            "text": {
              "status": "generated",
              "div": "<div xmlns=\"http://www.w3.org/1999/xhtml\">Pregnancy confirmed 12/06/2024. Estimated Date of Delivery  03/02/2025.</div>"
            },
            "entry": [
              {
                "reference": "urn:uuid:f85ad223-7bed-46f3-893d-e89d6082f9a9"
              }
            ]
          },
          {
            "title": "Result History",
            "code": {
              "coding": [
                {
                  "system": "http://loinc.org",
                  "code": "30954-2"
                }
              ]
            },
            "text": {
              "status": "generated",
              "div": "<div xmlns=\"http://www.w3.org/1999/xhtml\">\n              <table border=\"1\">\n                <thead>\n                  <tr>\n                    <th>Test Name</th>\n                    <th>Test Result</th>\n                    <th>Date</th>\n                  </tr>\n                </thead>\n                <tbody>\n                  <tr>\n                    <td>pH</td>\n                    <td>7</td>\n                    <td>05/11/2024</td>\n                  </tr>\n                  <tr>\n                    <td>Protein</td>\n                    <td>Positive</td>\n                    <td>05/11/2024</td>\n                  </tr>\n                  <tr>\n                    <td>Blood</td>\n                    <td>Positive</td>\n                    <td>05/11/2024</td>\n                  </tr>\n                  <tr>\n                    <td>Glucose</td>\n                    <td>Positive</td>\n                    <td>05/11/2024</td>\n                  </tr>\n                  <tr>\n                    <td>Leucocytes</td>\n                    <td>370  x 10^6/L </td>\n                    <td>05/11/2024</td>\n                  </tr>\n                  <tr>\n                    <td>Erythrocytes</td>\n                    <td>150 x 10^6/L </td>\n                    <td>05/11/2024</td>\n                  </tr>\n                  <tr>\n                    <td>Epithelial cells</td>\n                    <td>Nil</td>\n                    <td>05/11/2024</td>\n                  </tr>\n                  <tr>\n                    <td> Organism 1</td>\n                    <td>Escherichia coli </td>\n                    <td>05/11/2024</td>\n                  </tr>\n                  <tr>\n                    <td> Colony count 1</td>\n                    <td>10^8  Organisms/L</td>\n                    <td>05/11/2024</td>\n                  </tr>\n                  <tr>\n                    <td> Amp/Amoxycillin</td>\n                    <td>Susceptible</td>\n                    <td>05/11/2024</td>\n                  </tr>\n                  <tr>\n                    <td> Amoxycillin/clav. acid</td>\n                    <td>Susceptible</td>\n                    <td>05/11/2024</td>\n                  </tr>\n                  <tr>\n                    <td> Cephalexin</td>\n                    <td>Susceptible</td>\n                    <td>05/11/2024</td>\n                  </tr>\n                  <tr>\n                    <td>  Trimethoprim</td>\n                    <td>Susceptible</td>\n                    <td>05/11/2024</td>\n                  </tr>\n                  <tr>\n                    <td>  Nitrofurantoin</td>\n                    <td>Susceptible</td>\n                    <td>05/11/2024</td>\n                  </tr>\n                  <tr>\n                    <td>  Gentamicin</td>\n                    <td>Susceptible</td>\n                    <td>05/11/2024</td>\n                  </tr>\n                  <tr>\n                    <td>  Norfloxacin</td>\n                    <td>Susceptible</td>\n                    <td>05/11/2024</td>\n                  </tr>\n                  <tr>\n                    <td>Glucose Tolerance Test (GTT) Fasting</td>\n                    <td>5.3 mmol/L</td>\n                    <td>21/10/2024</td>\n                  </tr>\n                  <tr>\n                    <td>Glucose Tolerance Test (GTT) 1 hour</td>\n                    <td>10 mmol/L</td>\n                    <td>21/10/2024</td>\n                  </tr>\n                  <tr>\n                    <td>Glucose Tolerance Test (GTT) 2 hour</td>\n                    <td>8.6 mmol/L</td>\n                    <td>21/10/2024</td>\n                  </tr>\n                  <tr>\n                    <td>Haemoglobin A1c</td>\n                    <td>5.8 %</td>\n                    <td>14/06/2024</td>\n                  </tr>\n                  <tr>\n                    <td>Beta-HCG</td>\n                    <td>16000 IU/L</td>\n                    <td>12/06/2024</td>\n                  </tr>\n                  <tr>\n                    <td> Haemoglobin</td>\n                    <td>125  g/L</td>\n                    <td>12/06/2024</td>\n                  </tr>\n                  <tr>\n                    <td> Haematocrit</td>\n                    <td>0.37  L/L</td>\n                    <td>12/06/2024</td>\n                  </tr>\n                  <tr>\n                    <td> White Blood Cell Count</td>\n                    <td>8 x 10^9/L</td>\n                    <td>12/06/2024</td>\n                  </tr>\n                  <tr>\n                    <td> Platelets</td>\n                    <td>250 x 10^9/L</td>\n                    <td>12/06/2024</td>\n                  </tr>\n                  <tr>\n                    <td>MCV</td>\n                    <td>85 fL</td>\n                    <td>12/06/2024</td>\n                  </tr>\n                  <tr>\n                    <td> Colour</td>\n                    <td>Light yellow</td>\n                    <td>03/06/2024</td>\n                  </tr>\n                  <tr>\n                    <td> Clarity</td>\n                    <td>Clear</td>\n                    <td>03/06/2024</td>\n                  </tr>\n                  <tr>\n                    <td> pH</td>\n                    <td>6</td>\n                    <td>03/06/2024</td>\n                  </tr>\n                  <tr>\n                    <td> Specific Gravity</td>\n                    <td>1.02</td>\n                    <td>03/06/2024</td>\n                  </tr>\n                  <tr>\n                    <td> Protein</td>\n                    <td>Negative</td>\n                    <td>03/06/2024</td>\n                  </tr>\n                  <tr>\n                    <td> Glucose</td>\n                    <td>Negative</td>\n                    <td>03/06/2024</td>\n                  </tr>\n                  <tr>\n                    <td> Ketones</td>\n                    <td>Negative</td>\n                    <td>03/06/2024</td>\n                  </tr>\n                  <tr>\n                    <td> Nitrites</td>\n                    <td>Negative</td>\n                    <td>03/06/2024</td>\n                  </tr>\n                  <tr>\n                    <td> Leukocyte Esterase</td>\n                    <td>Negative</td>\n                    <td>03/06/2024</td>\n                  </tr>\n                </tbody>\n              </table>\n            </div>"
            },
            "entry": [
              {
                "reference": "urn:uuid:5f1b9790-4892-4af3-9b76-3cb4f854a5b1"
              },
              {
                "reference": "urn:uuid:1bbd2e05-161d-4030-975c-0cca3ef97cdb"
              },
              {
                "reference": "urn:uuid:27060cbf-e30e-4091-bd64-7d4ef40916ac"
              },
              {
                "reference": "urn:uuid:fc061f59-5410-41e9-945e-3f59664e8611"
              },
              {
                "reference": "urn:uuid:cbfc61f0-81e7-4cfd-8089-f6b605c214e7"
              },
              {
                "reference": "urn:uuid:743ff71f-ddc2-4fc7-8745-b3a15cb1a14c"
              },
              {
                "reference": "urn:uuid:0b585e1f-11a5-4a31-8883-37591ff9dc8b"
              },
              {
                "reference": "urn:uuid:5ae482c0-6ba0-4c95-8ee2-501accec3881"
              },
              {
                "reference": "urn:uuid:ad2ff609-df59-4639-a5e1-f0f39f22fe71"
              },
              {
                "reference": "urn:uuid:b8d46cb5-03fb-4076-a1df-95bbc9711910"
              },
              {
                "reference": "urn:uuid:f53009c0-b5a3-4a06-90ae-45bd397b6e54"
              },
              {
                "reference": "urn:uuid:71503a48-c2cd-4e6a-9fb1-0d9f8d70a05e"
              },
              {
                "reference": "urn:uuid:167e068e-26ab-4c3d-8477-88e70a143e62"
              },
              {
                "reference": "urn:uuid:7dc87c3e-cf74-4648-85e7-90a9b5fd5bc1"
              },
              {
                "reference": "urn:uuid:8c573f90-bd59-427b-b751-7d2fdd80925b"
              },
              {
                "reference": "urn:uuid:4f9ef0c2-b431-43b2-8085-2c0a8cd08637"
              },
              {
                "reference": "urn:uuid:ef08a9b0-89a4-47f7-bd4c-72c4c27c53ae"
              },
              {
                "reference": "urn:uuid:aecc0748-6c5d-4238-90ee-1af66f6c0c51"
              },
              {
                "reference": "urn:uuid:18b247c2-0c7e-4dcd-a19c-cf8205ce77cd"
              },
              {
                "reference": "urn:uuid:75c625ed-822e-4354-9827-aad8874a13ce"
              },
              {
                "reference": "urn:uuid:3ad4653a-f85c-4118-a7ff-c9dfa934eb56"
              },
              {
                "reference": "urn:uuid:b2104279-70e1-4b49-805b-1193f9cfb63e"
              },
              {
                "reference": "urn:uuid:f5449417-bd88-451b-ba0e-61073d30f1a8"
              },
              {
                "reference": "urn:uuid:49b658b3-315d-4e83-b85c-d57547611dc5"
              },
              {
                "reference": "urn:uuid:a0a0db9e-8922-40dd-ad6a-b3109ec3e4c2"
              },
              {
                "reference": "urn:uuid:a4471b2a-cd87-41dd-921c-37e38d1f597c"
              },
              {
                "reference": "urn:uuid:db32c14a-eca7-4998-bd7d-7b66dbc1fa23"
              },
              {
                "reference": "urn:uuid:aaeaedd1-9f65-43e9-9569-c2a99c9488c9"
              },
              {
                "reference": "urn:uuid:bafc1b41-323b-4cc6-971c-145608a96419"
              },
              {
                "reference": "urn:uuid:36b2e997-7b1c-4e94-b936-e8bd244da150"
              },
              {
                "reference": "urn:uuid:687e56d0-e45f-4bbd-b2e5-1df234f7d5e8"
              },
              {
                "reference": "urn:uuid:1e813570-e34f-49ae-9b78-c0ccaccbdb3b"
              },
              {
                "reference": "urn:uuid:bd10f9e1-df70-4aef-bfaa-b65aca083868"
              },
              {
                "reference": "urn:uuid:db34a194-c947-4624-b277-1d72ef9a5661"
              },
              {
                "reference": "urn:uuid:926c0a30-3f52-447d-89c5-e4c381580c3a"
              }
            ]
          },
          {
            "title": "Social History",
            "code": {
              "coding": [
                {
                  "system": "http://loinc.org",
                  "code": "29762-2"
                }
              ]
            },
            "text": {
              "status": "generated",
              "div": "<div xmlns=\"http://www.w3.org/1999/xhtml\">Lifetime non-smoker 28/10/2024</div>"
            },
            "entry": [
              {
                "reference": "urn:uuid:8924f910-53b3-4125-b0f2-58d0068f8983"
              }
            ]
          }
        ]
      }
    },
    {
      "fullUrl": "urn:uuid:85822a88-55b1-460c-bb7b-e8fc22d8568f",
      "resource": {
        "resourceType": "Patient",
        "meta": {
          "profile": [
            "http://hl7.org.au/fhir/ps/StructureDefinition/au-ps-patient"
          ]
        },
        "extension": [
          {
            "url": "http://hl7.org.au/fhir/StructureDefinition/indigenous-status",
            "valueCoding": {
              "system": "https://healthterminologies.gov.au/fhir/CodeSystem/australian-indigenous-status-1",
              "code": "4",
              "display": "Neither Aboriginal nor Torres Strait Islander origin"
            }
          }
        ],
        "identifier": [
          {
            "type": {
              "coding": [
                {
                  "system": "http://terminology.hl7.org/CodeSystem/v2-0203",
                  "code": "NI"
                }
              ],
              "text": "IHI"
            },
            "system": "http://ns.electronichealth.net.au/id/hi/ihi/1.0",
            "value": "8003608500314679"
          },
          {
            "type": {
              "coding": [
                {
                  "system": "http://terminology.hl7.org/CodeSystem/v2-0203",
                  "code": "MC"
                }
              ],
              "text": "Medicare Number"
            },
            "system": "http://ns.electronichealth.net.au/id/medicare-number",
            "value": "29545401611"
          }
        ],
        "name": [
          {
            "family": "JOHNSON",
            "given": [
              "Joyce"
            ]
          }
        ],
        "telecom": [
          {
            "system": "phone",
            "value": "0270108012",
            "use": "home"
          },
          {
            "system": "phone",
            "value": "0491571804",
            "use": "mobile"
          }
        ],
        "gender": "female",
        "birthDate": "1985-02-06",
        "address": [
          {
            "line": [
              "139 River Lane"
            ],
            "city": "Palmvale",
            "state": "NSW",
            "postalCode": "2484",
            "country": "AU"
          }
        ],
        "generalPractitioner": [
          {
            "reference": "urn:uuid:afead11c-3bee-4020-af4f-44040abfa961"
          }
        ]
      }
    },
    {
      "fullUrl": "urn:uuid:f7bd83e4-2a4e-40be-8467-8a29b667ef46",
      "resource": {
        "resourceType": "AllergyIntolerance",
        "meta": {
          "profile": [
            "http://hl7.org.au/fhir/ps/StructureDefinition/au-ps-allergyintolerance"
          ]
        },
        "clinicalStatus": {
          "coding": [
            {
              "system": "http://terminology.hl7.org/CodeSystem/allergyintolerance-clinical",
              "code": "active",
              "display": "Active"
            }
          ]
        },
        "verificationStatus": {
          "coding": [
            {
              "system": "http://terminology.hl7.org/CodeSystem/allergyintolerance-verification",
              "code": "unconfirmed",
              "display": "Unconfirmed"
            }
          ]
        },
        "type": "allergy",
        "code": {
          "coding": [
            {
              "system": "http://snomed.info/sct",
              "code": "227151004",
              "display": "Prawns"
            }
          ],
          "text": "Prawns"
        },
        "patient": {
          "reference": "urn:uuid:85822a88-55b1-460c-bb7b-e8fc22d8568f"
        },
        "onsetDateTime": "2024-11-02T18:50:00+11:00",
        "recordedDate": "2024-11-04",
        "note": [
          {
            "text": "Pt stated had prawns with dinner and noticed itchy throat, never experienced this before"
          }
        ],
        "reaction": [
          {
            "manifestation": [
              {
                "text": "Itchy throat"
              }
            ],
            "severity": "mild"
          }
        ]
      }
    },
    {
      "fullUrl": "urn:uuid:cbe37f4b-e84b-4f34-8490-f21da27f1aa9",
      "resource": {
        "resourceType": "MedicationStatement",
        "meta": {
          "profile": [
            "http://hl7.org.au/fhir/ps/StructureDefinition/au-ps-medicationstatement"
          ]
        },
        "contained": [
          {
            "resourceType": "Medication",
            "id": "trimethoprim",
            "meta": {
              "profile": [
                "http://hl7.org.au/fhir/ps/StructureDefinition/au-ps-medication"
              ]
            },
            "code": {
              "coding": [
                {
                  "system": "http://snomed.info/sct",
                  "code": "32792001",
                  "display": "Trimethoprim"
                }
              ],
              "text": "Trimethoprim"
            },
            "form": {
              "coding": [
                {
                  "system": "http://snomed.info/sct",
                  "code": "421026006",
                  "display": "Tablet"
                }
              ],
              "text": "Tablet"
            }
          }
        ],
        "status": "active",
        "medicationReference": {
          "reference": "#trimethoprim"
        },
        "subject": {
          "reference": "urn:uuid:85822a88-55b1-460c-bb7b-e8fc22d8568f"
        },
        "effectivePeriod": {
          "start": "2024-11-04"
        },
        "dateAsserted": "2024-11-04",
        "reasonReference": [
          {
            "reference": "urn:uuid:07034a67-66ce-4d29-95ab-1ef7e964a873"
          }
        ],
        "dosage": [
          {
            "text": "300mg daily for 3 days",
            "timing": {
              "repeat": {
                "frequency": 3,
                "period": 1,
                "periodUnit": "d"
              }
            },
            "route": {
              "coding": [
                {
                  "system": "http://snomed.info/sct",
                  "code": "26643006",
                  "display": "Oral route"
                }
              ],
              "text": "Oral route"
            }
          }
        ]
      }
    },
    {
      "fullUrl": "urn:uuid:05292a9c-2bc9-43a7-b935-0a61ede063da",
      "resource": {
        "resourceType": "MedicationStatement",
        "meta": {
          "profile": [
            "http://hl7.org.au/fhir/ps/StructureDefinition/au-ps-medicationstatement"
          ]
        },
        "contained": [
          {
            "resourceType": "Medication",
            "id": "metformin",
            "meta": {
              "profile": [
                "http://hl7.org.au/fhir/ps/StructureDefinition/au-ps-medication"
              ]
            },
            "code": {
              "coding": [
                {
                  "system": "http://snomed.info/sct",
                  "code": "109081006",
                  "display": "Metformin"
                }
              ],
              "text": "Metformin"
            },
            "form": {
              "coding": [
                {
                  "system": "http://snomed.info/sct",
                  "code": "421026006",
                  "display": "Tablet"
                }
              ],
              "text": "Tablet"
            }
          }
        ],
        "status": "active",
        "medicationReference": {
          "reference": "#metformin"
        },
        "subject": {
          "reference": "urn:uuid:85822a88-55b1-460c-bb7b-e8fc22d8568f"
        },
        "effectivePeriod": {
          "start": "2024"
        },
        "dateAsserted": "2024-10-24",
        "dosage": [
          {
            "text": "500mg twice daily",
            "timing": {
              "repeat": {
                "frequency": 2,
                "period": 1,
                "periodUnit": "d"
              }
            },
            "route": {
              "coding": [
                {
                  "system": "http://snomed.info/sct",
                  "code": "26643006",
                  "display": "Oral route"
                }
              ],
              "text": "Oral route"
            }
          }
        ]
      }
    },
    {
      "fullUrl": "urn:uuid:166c2afe-c6fb-4928-88f0-1c1a1e5e65cd",
      "resource": {
        "resourceType": "MedicationStatement",
        "meta": {
          "profile": [
            "http://hl7.org.au/fhir/ps/StructureDefinition/au-ps-medicationstatement"
          ]
        },
        "status": "active",
        "medicationCodeableConcept": {
          "text": "Prenatal vitamins"
        },
        "subject": {
          "reference": "urn:uuid:85822a88-55b1-460c-bb7b-e8fc22d8568f"
        },
        "effectivePeriod": {
          "start": "2024"
        },
        "dateAsserted": "2024-10-24",
        "note": [
          {
            "text": "Pt prefers Blackmores"
          }
        ],
        "dosage": [
          {
            "text": "1 tablet daily",
            "route": {
              "coding": [
                {
                  "system": "http://snomed.info/sct",
                  "code": "26643006",
                  "display": "Oral route"
                }
              ],
              "text": "Oral route"
            }
          }
        ]
      }
    },
    {
      "fullUrl": "urn:uuid:7193cc2f-d03e-42cb-ab55-4130904505d5",
      "resource": {
        "resourceType": "MedicationStatement",
        "meta": {
          "profile": [
            "http://hl7.org.au/fhir/ps/StructureDefinition/au-ps-medicationstatement"
          ]
        },
        "status": "active",
        "medicationCodeableConcept": {
          "text": "Insulin (Humulin N)"
        },
        "subject": {
          "reference": "urn:uuid:85822a88-55b1-460c-bb7b-e8fc22d8568f"
        },
        "effectivePeriod": {
          "start": "2024"
        },
        "dateAsserted": "2024-10-24",
        "dosage": [
          {
            "text": "10 units subcutaneously in the morning and evening"
          }
        ]
      }
    },
    {
      "fullUrl": "urn:uuid:1c4dd2b6-a9ee-4ba3-9b37-c1aff277c417",
      "resource": {
        "resourceType": "MedicationStatement",
        "meta": {
          "profile": [
            "http://hl7.org.au/fhir/ps/StructureDefinition/au-ps-medicationstatement"
          ]
        },
        "status": "active",
        "medicationCodeableConcept": {
          "text": "Insulin (Humulin R)"
        },
        "subject": {
          "reference": "urn:uuid:85822a88-55b1-460c-bb7b-e8fc22d8568f"
        },
        "effectivePeriod": {
          "start": "2024"
        },
        "dateAsserted": "2024-10-24",
        "dosage": [
          {
            "text": "5 units subcutaneously before each meal"
          }
        ]
      }
    },
    {
      "fullUrl": "urn:uuid:cb647933-b18c-42ef-a1c8-ae137921ba83",
      "resource": {
        "resourceType": "Condition",
        "meta": {
          "profile": [
            "http://hl7.org.au/fhir/ps/StructureDefinition/au-ps-condition"
          ]
        },
        "clinicalStatus": {
          "coding": [
            {
              "system": "http://terminology.hl7.org/CodeSystem/condition-clinical",
              "code": "active"
            }
          ]
        },
        "category": [
          {
            "coding": [
              {
                "system": "http://terminology.hl7.org/CodeSystem/condition-category",
                "code": "problem-list-item"
              }
            ],
            "text": "Problem"
          }
        ],
        "code": {
          "coding": [
            {
              "system": "http://snomed.info/sct",
              "code": "11687002",
              "display": "Gestational diabetes mellitus"
            }
          ],
          "text": "Gestational diabetes"
        },
        "subject": {
          "reference": "urn:uuid:85822a88-55b1-460c-bb7b-e8fc22d8568f"
        },
        "note": [
          {
            "text": "Recent diagnosis, referring to Endo & Dietitian"
          }
        ]
      }
    },
    {
      "fullUrl": "urn:uuid:07034a67-66ce-4d29-95ab-1ef7e964a873",
      "resource": {
        "resourceType": "Condition",
        "meta": {
          "profile": [
            "http://hl7.org.au/fhir/ps/StructureDefinition/au-ps-condition"
          ]
        },
        "clinicalStatus": {
          "coding": [
            {
              "system": "http://terminology.hl7.org/CodeSystem/condition-clinical",
              "code": "active"
            }
          ]
        },
        "verificationStatus": {
          "coding": [
            {
              "system": "http://terminology.hl7.org/CodeSystem/condition-ver-status",
              "code": "provisional"
            }
          ]
        },
        "category": [
          {
            "coding": [
              {
                "system": "http://terminology.hl7.org/CodeSystem/condition-category",
                "code": "problem-list-item"
              }
            ],
            "text": "Problem"
          }
        ],
        "code": {
          "coding": [
            {
              "system": "http://snomed.info/sct",
              "code": "68566005",
              "display": "Urinary tract infection"
            }
          ],
          "text": "Urinary tract infection (UTI)"
        },
        "subject": {
          "reference": "urn:uuid:85822a88-55b1-460c-bb7b-e8fc22d8568f"
        },
        "note": [
          {
            "text": "Patient reported symptoms of UTI. MSU to confirm."
          }
        ]
      }
    },
    {
      "fullUrl": "urn:uuid:78f75926-3ee1-44a7-9424-6178d905af63",
      "resource": {
        "resourceType": "Condition",
        "meta": {
          "profile": [
            "http://hl7.org.au/fhir/ps/StructureDefinition/au-ps-condition"
          ]
        },
        "clinicalStatus": {
          "coding": [
            {
              "system": "http://terminology.hl7.org/CodeSystem/condition-clinical",
              "code": "active"
            }
          ]
        },
        "category": [
          {
            "coding": [
              {
                "system": "http://terminology.hl7.org/CodeSystem/condition-category",
                "code": "problem-list-item"
              }
            ],
            "text": "Problem"
          }
        ],
        "code": {
          "coding": [
            {
              "system": "http://snomed.info/sct",
              "code": "271737000",
              "display": "Anaemia"
            }
          ],
          "text": "Anaemia"
        },
        "subject": {
          "reference": "urn:uuid:85822a88-55b1-460c-bb7b-e8fc22d8568f"
        }
      }
    },
    {
      "fullUrl": "urn:uuid:289aff01-0b3e-4614-aee8-378d074fc3d2",
      "resource": {
        "resourceType": "Condition",
        "meta": {
          "profile": [
            "http://hl7.org.au/fhir/ps/StructureDefinition/au-ps-condition"
          ]
        },
        "clinicalStatus": {
          "coding": [
            {
              "system": "http://terminology.hl7.org/CodeSystem/condition-clinical",
              "code": "resolved"
            }
          ]
        },
        "category": [
          {
            "coding": [
              {
                "system": "http://terminology.hl7.org/CodeSystem/condition-category",
                "code": "problem-list-item"
              }
            ],
            "text": "Problem"
          }
        ],
        "code": {
          "coding": [
            {
              "system": "http://snomed.info/sct",
              "code": "74400008",
              "display": "Appendicitis"
            }
          ],
          "text": "Appendicitis"
        },
        "subject": {
          "reference": "urn:uuid:85822a88-55b1-460c-bb7b-e8fc22d8568f"
        }
      }
    },
    {
      "fullUrl": "urn:uuid:e6db9bbe-60c3-4f89-8f65-25c58771fe41",
      "resource": {
        "resourceType": "Condition",
        "meta": {
          "profile": [
            "http://hl7.org.au/fhir/ps/StructureDefinition/au-ps-condition"
          ]
        },
        "clinicalStatus": {
          "coding": [
            {
              "system": "http://terminology.hl7.org/CodeSystem/condition-clinical",
              "code": "resolved"
            }
          ]
        },
        "category": [
          {
            "coding": [
              {
                "system": "http://terminology.hl7.org/CodeSystem/condition-category",
                "code": "problem-list-item"
              }
            ],
            "text": "Problem"
          }
        ],
        "code": {
          "coding": [
            {
              "system": "http://snomed.info/sct",
              "code": "54150009",
              "display": "Upper respiratory tract infection"
            }
          ],
          "text": "Upper respiratory tract infection"
        },
        "subject": {
          "reference": "urn:uuid:85822a88-55b1-460c-bb7b-e8fc22d8568f"
        }
      }
    },
    {
      "fullUrl": "urn:uuid:dc422222-8b3a-4dd5-96b5-b7e0cf43b477",
      "resource": {
        "resourceType": "Condition",
        "meta": {
          "profile": [
            "http://hl7.org.au/fhir/ps/StructureDefinition/au-ps-condition"
          ]
        },
        "clinicalStatus": {
          "coding": [
            {
              "system": "http://terminology.hl7.org/CodeSystem/condition-clinical",
              "code": "resolved"
            }
          ]
        },
        "category": [
          {
            "coding": [
              {
                "system": "http://terminology.hl7.org/CodeSystem/condition-category",
                "code": "problem-list-item"
              }
            ],
            "text": "Problem"
          }
        ],
        "code": {
          "coding": [
            {
              "system": "http://snomed.info/sct",
              "code": "403190006",
              "display": "Epidermal burn of skin"
            }
          ],
          "text": "First degree burn, Upper shoulders and back"
        },
        "subject": {
          "reference": "urn:uuid:85822a88-55b1-460c-bb7b-e8fc22d8568f"
        },
        "note": [
          {
            "text": "Severe sunburn, upper shoulders and back"
          }
        ]
      }
    },
    {
      "fullUrl": "urn:uuid:784ae7d5-22df-442d-b932-0c001720136c",
      "resource": {
        "resourceType": "Immunization",
        "meta": {
          "profile": [
            "http://hl7.org.au/fhir/ps/StructureDefinition/au-ps-immunization"
          ]
        },
        "status": "completed",
        "vaccineCode": {
          "coding": [
            {
              "system": "http://snomed.info/sct",
              "version": "http://snomed.info/sct/32506021000036107/version/20250131",
              "code": "1789171000168108",
              "display": "Diphtheria + tetanus + pertussis 5 component adolescent/adult vaccine injection, 0.5 mL syringe"
            }
          ],
          "text": "Diphtheria + tetanus + pertussis 5 component adolescent/adult vaccine injection, 0.5 mL syringe"
        },
        "patient": {
          "reference": "urn:uuid:85822a88-55b1-460c-bb7b-e8fc22d8568f"
        },
        "occurrenceDateTime": "2024-10-05"
      }
    },
    {
      "fullUrl": "urn:uuid:ad82d71b-ca1c-4db6-a726-cc70cf638306",
      "resource": {
        "resourceType": "Observation",
        "meta": {
          "profile": [
            "http://hl7.org/fhir/uv/ips/StructureDefinition/Observation-pregnancy-edd-uv-ips"
          ]
        },
        "status": "final",
        "category": [
          {
            "coding": [
              {
                "system": "http://terminology.hl7.org/CodeSystem/observation-category",
                "code": "imaging",
                "display": "Imaging"
              }
            ]
          }
        ],
        "code": {
          "coding": [
            {
              "system": "http://snomed.info/sct",
              "code": "161714006",
              "display": "Estimated date of delivery"
            },
            {
              "system": "http://loinc.org",
              "code": "11778-8",
              "display": "Delivery date Estimated"
            }
          ]
        },
        "subject": {
          "reference": "urn:uuid:85822a88-55b1-460c-bb7b-e8fc22d8568f"
        },
        "effectiveDateTime": "2024-06-12",
        "valueDateTime": "2025-02-03"
      }
    },
    {
      "fullUrl": "urn:uuid:f85ad223-7bed-46f3-893d-e89d6082f9a9",
      "resource": {
        "resourceType": "Observation",
        "meta": {
          "profile": [
            "http://hl7.org/fhir/uv/ips/StructureDefinition/Observation-pregnancy-status-uv-ips"
          ]
        },
        "status": "final",
        "category": [
          {
            "coding": [
              {
                "system": "http://terminology.hl7.org/CodeSystem/observation-category",
                "code": "social-history",
                "display": "Social History"
              }
            ]
          }
        ],
        "code": {
          "coding": [
            {
              "system": "http://loinc.org",
              "code": "82810-3",
              "display": "Pregnancy status"
            }
          ]
        },
        "subject": {
          "reference": "urn:uuid:85822a88-55b1-460c-bb7b-e8fc22d8568f"
        },
        "effectiveDateTime": "2024-06-12",
        "valueCodeableConcept": {
          "coding": [
            {
              "system": "http://snomed.info/sct",
              "code": "77386006",
              "display": "Pregnant"
            },
            {
              "system": "http://loinc.org",
              "code": "LA15173-0",
              "display": "Pregnant"
            }
          ],
          "text": "Pregnant"
        },
        "hasMember": [
          {
            "reference": "urn:uuid:ad82d71b-ca1c-4db6-a726-cc70cf638306"
          }
        ]
      }
    },
    {
      "fullUrl": "urn:uuid:afead11c-3bee-4020-af4f-44040abfa961",
      "resource": {
        "resourceType": "PractitionerRole",
        "meta": {
          "profile": [
            "http://hl7.org.au/fhir/ps/StructureDefinition/au-ps-practitionerrole"
          ]
        },
        "identifier": [
          {
            "type": {
              "coding": [
                {
                  "system": "http://terminology.hl7.org.au/CodeSystem/v2-0203",
                  "code": "UPIN"
                }
              ],
              "text": "Medicare Provider Number"
            },
            "system": "http://ns.electronichealth.net.au/id/medicare-provider-number",
            "value": "2448681J"
          }
        ],
        "practitioner": {
          "reference": "urn:uuid:0c0e2c4f-a748-4cc7-afde-f09bdc2d6fa9"
        },
        "organization": {
          "reference": "urn:uuid:14292353-98f0-43b3-a25b-406baf3f9175"
        },
        "code": [
          {
            "coding": [
              {
                "system": "http://www.abs.gov.au/ausstats/abs@.nsf/mf/1220.0",
                "code": "253111",
                "display": "General Practitioner"
              },
              {
                "system": "http://snomed.info/sct",
                "code": "62247001"
              }
            ]
          }
        ],
        "specialty": [
          {
            "coding": [
              {
                "system": "http://snomed.info/sct",
                "code": "408443003"
              }
            ]
          }
        ],
        "telecom": [
          {
            "system": "phone",
            "value": "0270105673",
            "use": "work"
          },
          {
            "system": "email",
            "value": "ginger.burrows@bungabbeemc.example.com.au",
            "use": "work"
          }
        ]
      }
    },
    {
      "fullUrl": "urn:uuid:0c0e2c4f-a748-4cc7-afde-f09bdc2d6fa9",
      "resource": {
        "resourceType": "Practitioner",
        "meta": {
          "profile": [
            "http://hl7.org.au/fhir/ps/StructureDefinition/au-ps-practitioner"
          ]
        },
        "identifier": [
          {
            "type": {
              "coding": [
                {
                  "system": "http://terminology.hl7.org/CodeSystem/v2-0203",
                  "code": "NPI",
                  "display": "National provider identifier"
                }
              ],
              "text": "HPI-I"
            },
            "system": "http://ns.electronichealth.net.au/id/hi/hpii/1.0",
            "value": "8003618233385011"
          }
        ],
        "name": [
          {
            "family": "BURROWS",
            "given": [
              "Ginger"
            ]
          }
        ],
        "telecom": [
          {
            "system": "phone",
            "value": "0270105673",
            "use": "work"
          },
          {
            "system": "email",
            "value": "ginger.burrows@bungabbeemc.example.com.au"
          }
        ],
        "address": [
          {
            "line": [
              "189 Bay Esp"
            ],
            "city": "Bungabbee",
            "state": "NSW",
            "postalCode": "2480"
          }
        ]
      }
    },
    {
      "fullUrl": "urn:uuid:14292353-98f0-43b3-a25b-406baf3f9175",
      "resource": {
        "resourceType": "Organization",
        "meta": {
          "profile": [
            "http://hl7.org.au/fhir/ps/StructureDefinition/au-ps-organization"
          ]
        },
        "identifier": [
          {
            "type": {
              "coding": [
                {
                  "system": "http://terminology.hl7.org.au/CodeSystem/v2-0203",
                  "code": "NOI"
                }
              ],
              "text": "HPI-O"
            },
            "system": "http://ns.electronichealth.net.au/id/hi/hpio/1.0",
            "value": "8003624900039170"
          },
          {
            "type": {
              "coding": [
                {
                  "system": "http://terminology.hl7.org/CodeSystem/v2-0203",
                  "code": "XX"
                }
              ],
              "text": "ABN"
            },
            "system": "http://hl7.org.au/id/abn",
            "value": "81156248664"
          }
        ],
        "type": [
          {
            "coding": [
              {
                "system": "http://www.abs.gov.au/ausstats/abs@.nsf/mf/1292.0",
                "code": "8511",
                "display": "General Practice Medical Services"
              },
              {
                "system": "http://snomed.info/sct",
                "code": "788007007",
                "display": "General practice service"
              }
            ],
            "text": "General practice medical clinic service"
          }
        ],
        "name": "Bungabbee Medical Clinic",
        "telecom": [
          {
            "system": "phone",
            "value": "0255506327",
            "use": "work"
          },
          {
            "system": "email",
            "value": "info@bungabbeemc.example.com.au"
          }
        ],
        "address": [
          {
            "line": [
              "158 Toby Ave"
            ],
            "city": "Bungabbee",
            "state": "NSW",
            "postalCode": "2480"
          }
        ]
      }
    },
    {
      "fullUrl": "urn:uuid:46624cc1-7d2e-4367-aa82-85d097ac423f",
      "resource": {
        "resourceType": "Immunization",
        "meta": {
          "profile": [
            "http://hl7.org.au/fhir/ps/StructureDefinition/au-ps-immunization"
          ]
        },
        "status": "completed",
        "vaccineCode": {
          "coding": [
            {
              "system": "https://www.humanservices.gov.au/organisations/health-professionals/enablers/air-vaccine-code-formats",
              "code": "PANVAX"
            }
          ],
          "text": "Panvax"
        },
        "patient": {
          "reference": "urn:uuid:85822a88-55b1-460c-bb7b-e8fc22d8568f"
        },
        "occurrenceDateTime": "2022-06-01",
        "primarySource": true
      }
    },
    {
      "fullUrl": "urn:uuid:5711e015-890f-489d-9f8f-49d9a7ff95cd",
      "resource": {
        "resourceType": "Immunization",
        "meta": {
          "profile": [
            "http://hl7.org.au/fhir/ps/StructureDefinition/au-ps-immunization"
          ]
        },
        "status": "completed",
        "vaccineCode": {
          "coding": [
            {
              "system": "https://www.humanservices.gov.au/organisations/health-professionals/enablers/air-vaccine-code-formats",
              "code": "PANVAX"
            }
          ],
          "text": "Panvax"
        },
        "patient": {
          "reference": "urn:uuid:85822a88-55b1-460c-bb7b-e8fc22d8568f"
        },
        "occurrenceDateTime": "2021-05-17",
        "primarySource": true
      }
    },
    {
      "fullUrl": "urn:uuid:62eb70e3-e814-4785-80d3-8aa45b1fc367",
      "resource": {
        "resourceType": "Immunization",
        "meta": {
          "profile": [
            "http://hl7.org.au/fhir/ps/StructureDefinition/au-ps-immunization"
          ]
        },
        "status": "completed",
        "vaccineCode": {
          "coding": [
            {
              "system": "https://www.humanservices.gov.au/organisations/health-professionals/enablers/air-vaccine-code-formats",
              "code": "PANVAX"
            }
          ],
          "text": "Panvax"
        },
        "patient": {
          "reference": "urn:uuid:85822a88-55b1-460c-bb7b-e8fc22d8568f"
        },
        "occurrenceDateTime": "2023-05-15",
        "primarySource": true,
        "note": [
          {
            "text": "Pt reported localised redness and swelling post previous flu vax last year. Monitor for rxn."
          }
        ]
      }
    },
    {
      "fullUrl": "urn:uuid:2f3537b2-f50c-4a2a-ab92-30fdcfe5fd96",
      "resource": {
        "resourceType": "Immunization",
        "meta": {
          "profile": [
            "http://hl7.org.au/fhir/ps/StructureDefinition/au-ps-immunization"
          ]
        },
        "extension": [
          {
            "url": "http://hl7.org.au/fhir/StructureDefinition/vaccine-serial-number",
            "valueString": "SERIAL1234"
          }
        ],
        "status": "completed",
        "vaccineCode": {
          "coding": [
            {
              "system": "https://www.humanservices.gov.au/organisations/health-professionals/enablers/air-vaccine-code-formats",
              "code": "PANVAX",
              "display": "Panvax"
            }
          ],
          "text": "Panvax"
        },
        "patient": {
          "reference": "urn:uuid:85822a88-55b1-460c-bb7b-e8fc22d8568f"
        },
        "occurrenceDateTime": "2024-05-05",
        "primarySource": true,
        "lotNumber": "lot001"
      }
    },
    {
      "fullUrl": "urn:uuid:c4e7d351-cd85-435d-9fa5-2db04108651f",
      "resource": {
        "resourceType": "Immunization",
        "meta": {
          "profile": [
            "http://hl7.org.au/fhir/ps/StructureDefinition/au-ps-immunization"
          ]
        },
        "status": "completed",
        "vaccineCode": {
          "coding": [
            {
              "system": "https://www.humanservices.gov.au/organisations/health-professionals/enablers/air-vaccine-code-formats",
              "code": "PANVAX",
              "display": "Panvax"
            }
          ],
          "text": "Panvax"
        },
        "patient": {
          "reference": "urn:uuid:85822a88-55b1-460c-bb7b-e8fc22d8568f"
        },
        "occurrenceDateTime": "2020-05-03",
        "primarySource": true
      }
    },
    {
      "fullUrl": "urn:uuid:97767fb5-3be7-4d16-9ee8-76c47a4ab0ce",
      "resource": {
        "resourceType": "Immunization",
        "meta": {
          "profile": [
            "http://hl7.org.au/fhir/ps/StructureDefinition/au-ps-immunization"
          ]
        },
        "extension": [
          {
            "url": "http://hl7.org.au/fhir/StructureDefinition/vaccine-serial-number",
            "valueString": "vNo1111"
          }
        ],
        "status": "completed",
        "vaccineCode": {
          "coding": [
            {
              "system": "https://www.humanservices.gov.au/organisations/health-professionals/enablers/air-vaccine-code-formats",
              "code": "MODERN"
            },
            {
              "system": "http://snomed.info/sct",
              "code": "1730491000168104",
              "display": "Spikevax 50 microgram/0.5 mL injection, 0.5 mL syringe"
            }
          ],
          "text": "COVID-19 mRNA-1273 Vaccine (Moderna) injection, 0.5 mL syringe"
        },
        "patient": {
          "reference": "urn:uuid:85822a88-55b1-460c-bb7b-e8fc22d8568f"
        },
        "occurrenceDateTime": "2023-05-15",
        "recorded": "2022-02-14",
        "primarySource": true,
        "manufacturer": {
          "display": "ModernaTX, Inc."
        },
        "lotNumber": "RX00000F"
      }
    },
    {
      "fullUrl": "urn:uuid:40a0b552-b0ea-4283-b33e-a5d2e26ed20f",
      "resource": {
        "resourceType": "Immunization",
        "meta": {
          "profile": [
            "http://hl7.org.au/fhir/ps/StructureDefinition/au-ps-immunization"
          ]
        },
        "extension": [
          {
            "url": "http://hl7.org.au/fhir/StructureDefinition/vaccine-serial-number",
            "valueString": "vNo1111"
          }
        ],
        "status": "completed",
        "vaccineCode": {
          "coding": [
            {
              "system": "https://www.humanservices.gov.au/organisations/health-professionals/enablers/air-vaccine-code-formats",
              "code": "COMIRN"
            },
            {
              "system": "http://snomed.info/sct",
              "code": "1525011000168107",
              "display": "Comirnaty"
            }
          ],
          "text": "Pfizer Comirnaty"
        },
        "patient": {
          "reference": "urn:uuid:85822a88-55b1-460c-bb7b-e8fc22d8568f"
        },
        "occurrenceDateTime": "2021-07-20",
        "primarySource": true,
        "manufacturer": {
          "display": "Pfizer Australia Ltd"
        },
        "lotNumber": "300000000P",
        "site": {
          "coding": [
            {
              "system": "http://snomed.info/sct",
              "code": "368208006"
            }
          ],
          "text": "Left upper arm"
        }
      }
    },
    {
      "fullUrl": "urn:uuid:fac8c42e-4d2a-4cf5-bcc6-831c60e8230e",
      "resource": {
        "resourceType": "Immunization",
        "meta": {
          "profile": [
            "http://hl7.org.au/fhir/ps/StructureDefinition/au-ps-immunization"
          ]
        },
        "identifier": [
          {
            "system": "urn:ietf:rfc:3986",
            "value": "urn:uuid:475db616-dfd5-43f3-b935-9f582233a38d"
          }
        ],
        "status": "completed",
        "vaccineCode": {
          "coding": [
            {
              "system": "https://www.humanservices.gov.au/organisations/health-professionals/enablers/air-vaccine-code-formats",
              "code": "COMIRN"
            }
          ],
          "text": "Pfizer Comirnaty"
        },
        "patient": {
          "reference": "urn:uuid:85822a88-55b1-460c-bb7b-e8fc22d8568f"
        },
        "occurrenceDateTime": "2022-02-02",
        "primarySource": true,
        "manufacturer": {
          "display": "Pfizer Australia Ltd"
        },
        "lotNumber": "500000000P",
        "site": {
          "coding": [
            {
              "system": "http://snomed.info/sct",
              "code": "368208006"
            }
          ],
          "text": "Left upper arm"
        }
      }
    },
    {
      "fullUrl": "urn:uuid:eb1f812e-41c6-4f8d-b9de-573428a94994",
      "resource": {
        "resourceType": "Immunization",
        "meta": {
          "profile": [
            "http://hl7.org.au/fhir/ps/StructureDefinition/au-ps-immunization"
          ]
        },
        "status": "completed",
        "vaccineCode": {
          "coding": [
            {
              "system": "https://www.humanservices.gov.au/organisations/health-professionals/enablers/air-vaccine-code-formats",
              "code": "COMIRN"
            },
            {
              "system": "http://snomed.info/sct",
              "code": "1525011000168107",
              "display": "Comirnaty"
            }
          ],
          "text": "Pfizer Comirnaty"
        },
        "patient": {
          "reference": "urn:uuid:85822a88-55b1-460c-bb7b-e8fc22d8568f"
        },
        "occurrenceDateTime": "2021-04-27",
        "primarySource": true,
        "manufacturer": {
          "display": "Pfizer Australia Ltd"
        },
        "lotNumber": "200000000P",
        "site": {
          "coding": [
            {
              "system": "http://snomed.info/sct",
              "code": "368208006"
            }
          ],
          "text": "Left upper arm"
        }
      }
    },
    {
      "fullUrl": "urn:uuid:5f1b9790-4892-4af3-9b76-3cb4f854a5b1",
      "resource": {
        "resourceType": "Observation",
        "meta": {
          "profile": [
            "http://hl7.org.au/fhir/ps/StructureDefinition/au-ps-diagnosticresult-path"
          ]
        },
        "status": "final",
        "category": [
          {
            "coding": [
              {
                "system": "http://terminology.hl7.org/CodeSystem/observation-category",
                "code": "laboratory",
                "display": "Laboratory"
              }
            ]
          }
        ],
        "code": {
          "coding": [
            {
              "system": "http://loinc.org",
              "code": "14995-5",
              "display": "Glucose [Moles/volume] in Serum or Plasma --2 hours post 75 g glucose PO"
            }
          ],
          "text": "Glucose Tolerance Test (GTT) 2 hour"
        },
        "subject": {
          "reference": "urn:uuid:85822a88-55b1-460c-bb7b-e8fc22d8568f"
        },
        "effectiveDateTime": "2024-10-21",
        "performer": [
          {
            "extension": [
              {
                "url": "http://hl7.org/fhir/StructureDefinition/data-absent-reason",
                "valueCode": "unknown"
              }
            ]
          }
        ],
        "valueQuantity": {
          "value": 8.6,
          "system": "http://unitsofmeasure.org",
          "code": "mmol/L"
        }
      }
    },
    {
      "fullUrl": "urn:uuid:1bbd2e05-161d-4030-975c-0cca3ef97cdb",
      "resource": {
        "resourceType": "Observation",
        "meta": {
          "profile": [
            "http://hl7.org.au/fhir/ps/StructureDefinition/au-ps-diagnosticresult-path"
          ]
        },
        "status": "final",
        "category": [
          {
            "coding": [
              {
                "system": "http://terminology.hl7.org/CodeSystem/observation-category",
                "code": "laboratory",
                "display": "Laboratory"
              }
            ]
          }
        ],
        "code": {
          "coding": [           
            {
              "system": "http://loinc.org",
              "code": "14996-3",
              "display": "Glucose [Moles/volume] in Serum or Plasma --pre 75 g glucose PO"
            }
          ],
          "text": "Glucose Tolerance Test (GTT) Fasting"
        },
        "subject": {
          "reference": "urn:uuid:85822a88-55b1-460c-bb7b-e8fc22d8568f"
        },
        "effectiveDateTime": "2024-10-21",
        "performer": [
          {
            "extension": [
              {
                "url": "http://hl7.org/fhir/StructureDefinition/data-absent-reason",
                "valueCode": "unknown"
              }
            ]
          }
        ],
        "valueQuantity": {
          "value": 5.3,
          "system": "http://unitsofmeasure.org",
          "code": "mmol/L"
        }
      }
    },
    {
      "fullUrl": "urn:uuid:27060cbf-e30e-4091-bd64-7d4ef40916ac",
      "resource": {
        "resourceType": "Observation",
        "meta": {
          "profile": [
            "http://hl7.org.au/fhir/ps/StructureDefinition/au-ps-diagnosticresult-path"
          ]
        },
        "status": "final",
        "category": [
          {
            "coding": [
              {
                "system": "http://terminology.hl7.org/CodeSystem/observation-category",
                "code": "laboratory",
                "display": "Laboratory"
              }
            ]
          }
        ],
        "code": {
          "coding": [           
            {
              "system": "http://loinc.org",
              "code": "51597-3",
              "display": "Glucose [Moles/volume] in Serum or Plasma --1 hour post 75 g glucose PO"
            }
          ],
          "text": "Glucose Tolerance Test (GTT) 1 hour"
        },
        "subject": {
          "reference": "urn:uuid:85822a88-55b1-460c-bb7b-e8fc22d8568f"
        },
        "effectiveDateTime": "2024-10-21",
        "performer": [
          {
            "extension": [
              {
                "url": "http://hl7.org/fhir/StructureDefinition/data-absent-reason",
                "valueCode": "unknown"
              }
            ]
          }
        ],
        "valueQuantity": {
          "value": 10,
          "system": "http://unitsofmeasure.org",
          "code": "mmol/L"
        }
      }
    },
    {
      "fullUrl": "urn:uuid:fc061f59-5410-41e9-945e-3f59664e8611",
      "resource": {
        "resourceType": "Observation",
        "meta": {
          "profile": [
            "http://hl7.org.au/fhir/ps/StructureDefinition/au-ps-diagnosticresult-path"
          ]
        },
        "status": "final",
        "category": [
          {
            "coding": [
              {
                "system": "http://terminology.hl7.org/CodeSystem/observation-category",
                "code": "laboratory",
                "display": "Laboratory"
              }
            ]
          }
        ],
        "code": {
          "coding": [
            {
              "system": "http://loinc.org",
              "code": "4548-4",
              "display": "Hemoglobin A1c/Hemoglobin.total in Blood"
            }
          ],
          "text": "Haemoglobin A1c"
        },
        "subject": {
          "reference": "urn:uuid:85822a88-55b1-460c-bb7b-e8fc22d8568f"
        },
        "effectiveDateTime": "2024-06-14",
        "performer": [
          {
            "extension": [
              {
                "url": "http://hl7.org/fhir/StructureDefinition/data-absent-reason",
                "valueCode": "unknown"
              }
            ]
          }
        ],
        "valueQuantity": {
          "value": 5.8,
          "system": "http://unitsofmeasure.org",
          "code": "%"
        }
      }
    },
    {
      "fullUrl": "urn:uuid:cbfc61f0-81e7-4cfd-8089-f6b605c214e7",
      "resource": {
        "resourceType": "Observation",
        "id": "cbfc61f0-81e7-4cfd-8089-f6b605c214e7",
        "status": "final",
        "category": [
          {
            "coding": [
              {
                "system": "http://terminology.hl7.org/CodeSystem/observation-category",
                "code": "laboratory",
                "display": "Laboratory"
              }
            ]
          }
        ],
        "code": {
          "coding": [
            {
              "system": "http://loinc.org",
              "code": "21198-7",
              "display": "Choriogonadotropin.beta subunit [Units/volume] in Serum or Plasma"
            }
          ],
          "text": "Beta-HCG"
        },
        "subject": {
          "reference": "urn:uuid:85822a88-55b1-460c-bb7b-e8fc22d8568f"
        },
        "performer": [
          {
            "extension": [
              {
                "url": "http://hl7.org/fhir/StructureDefinition/data-absent-reason",
                "valueCode": "unknown"
              }
            ]
          }
        ],
        "effectiveDateTime": "2024-06-12",
        "valueQuantity": {
          "value": 16000,
          "system": "http://unitsofmeasure.org",
          "code": "[IU]/L",
          "unit": "IU/L"
        }
      }
    },
    {
      "fullUrl": "urn:uuid:743ff71f-ddc2-4fc7-8745-b3a15cb1a14c",
      "resource": {
        "resourceType": "Observation",
        "id": "743ff71f-ddc2-4fc7-8745-b3a15cb1a14c",
        "status": "final",
        "category": [
          {
            "coding": [
              {
                "system": "http://terminology.hl7.org/CodeSystem/observation-category",
                "code": "laboratory",
                "display": "Laboratory"
              }
            ]
          }
        ],
        "code": {
          "coding": [
            {
              "system": "http://loinc.org",
              "code": "718-7",
              "display": "Hemoglobin [Mass/volume] in Blood"
            }
          ],
          "text": "Haemoglobin"
        },
        "subject": {
          "reference": "urn:uuid:85822a88-55b1-460c-bb7b-e8fc22d8568f"
        },
        "performer": [
          {
            "extension": [
              {
                "url": "http://hl7.org/fhir/StructureDefinition/data-absent-reason",
                "valueCode": "unknown"
              }
            ]
          }
        ],
        "effectiveDateTime": "2024-06-12",
        "valueQuantity": {
          "value": 125,
          "system": "http://unitsofmeasure.org",
          "code": "g/L",
          "unit": "g/L"
        }
      }
    },
    {
      "fullUrl": "urn:uuid:0b585e1f-11a5-4a31-8883-37591ff9dc8b",
      "resource": {
        "resourceType": "Observation",
        "id": "0b585e1f-11a5-4a31-8883-37591ff9dc8b",
        "status": "final",
        "category": [
          {
            "coding": [
              {
                "system": "http://terminology.hl7.org/CodeSystem/observation-category",
                "code": "laboratory",
                "display": "Laboratory"
              }
            ]
          }
        ],
        "code": {
          "coding": [
            {
              "system": "http://loinc.org",
              "code": "4544-3",
              "display": "Hematocrit [Volume Fraction] of Blood by Automated count"
            }
          ],
          "text": "Haematocrit"
        },
        "subject": {
          "reference": "urn:uuid:85822a88-55b1-460c-bb7b-e8fc22d8568f"
        },
        "performer": [
          {
            "extension": [
              {
                "url": "http://hl7.org/fhir/StructureDefinition/data-absent-reason",
                "valueCode": "unknown"
              }
            ]
          }
        ],
        "effectiveDateTime": "2024-06-12",
        "valueQuantity": {
          "value": 0.37,
          "system": "http://unitsofmeasure.org",
          "code": "L/L",
          "unit": "L/L"
        }
      }
    },
    {
      "fullUrl": "urn:uuid:5ae482c0-6ba0-4c95-8ee2-501accec3881",
      "resource": {
        "resourceType": "Observation",
        "id": "5ae482c0-6ba0-4c95-8ee2-501accec3881",
        "status": "final",
        "category": [
          {
            "coding": [
              {
                "system": "http://terminology.hl7.org/CodeSystem/observation-category",
                "code": "laboratory",
                "display": "Laboratory"
              }
            ]
          }
        ],
        "code": {
          "coding": [
            {
              "system": "http://loinc.org",
              "code": "6690-2",
              "display": "Leukocytes [#/volume] in Blood by Automated count"
            }
          ],
          "text": "White Blood Cell Count"
        },
        "subject": {
          "reference": "urn:uuid:85822a88-55b1-460c-bb7b-e8fc22d8568f"
        },
        "performer": [
          {
            "extension": [
              {
                "url": "http://hl7.org/fhir/StructureDefinition/data-absent-reason",
                "valueCode": "unknown"
              }
            ]
          }
        ],
        "effectiveDateTime": "2024-06-12",
        "valueQuantity": {
          "value": 8.0,
          "system": "http://unitsofmeasure.org",
          "code": "10*9/L",
          "unit": "x 10^9/L"
        }
      }
    },
    {
      "fullUrl": "urn:uuid:ad2ff609-df59-4639-a5e1-f0f39f22fe71",
      "resource": {
        "resourceType": "Observation",
        "id": "ad2ff609-df59-4639-a5e1-f0f39f22fe71",
        "status": "final",
        "category": [
          {
            "coding": [
              {
                "system": "http://terminology.hl7.org/CodeSystem/observation-category",
                "code": "laboratory",
                "display": "Laboratory"
              }
            ]
          }
        ],
        "code": {
          "coding": [
            {
              "system": "http://loinc.org",
              "code": "777-3",
              "display": "Platelets [#/volume] in Blood by Automated count"
            }
          ],
          "text": "Platelets"
        },
        "subject": {
          "reference": "urn:uuid:85822a88-55b1-460c-bb7b-e8fc22d8568f"
        },
        "performer": [
          {
            "extension": [
              {
                "url": "http://hl7.org/fhir/StructureDefinition/data-absent-reason",
                "valueCode": "unknown"
              }
            ]
          }
        ],
        "effectiveDateTime": "2024-06-12",
        "valueQuantity": {
          "value": 250,
          "system": "http://unitsofmeasure.org",
          "code": "10*9/L",
          "unit": "x 10^9/L"
        }
      }
    },
    {
      "fullUrl": "urn:uuid:b8d46cb5-03fb-4076-a1df-95bbc9711910",
      "resource": {
        "resourceType": "Observation",
        "id": "b8d46cb5-03fb-4076-a1df-95bbc9711910",
        "status": "final",
        "category": [
          {
            "coding": [
              {
                "system": "http://terminology.hl7.org/CodeSystem/observation-category",
                "code": "laboratory",
                "display": "Laboratory"
              }
            ]
          }
        ],
        "code": {
          "coding": [
            {
              "system": "http://loinc.org",
              "code": "787-2",
              "display": "MCV [Entitic mean volume] in Red Blood Cells by Automated count"
            }
          ],
          "text": "MCV"
        },
        "subject": {
          "reference": "urn:uuid:85822a88-55b1-460c-bb7b-e8fc22d8568f"
        },
        "performer": [
          {
            "extension": [
              {
                "url": "http://hl7.org/fhir/StructureDefinition/data-absent-reason",
                "valueCode": "unknown"
              }
            ]
          }
        ],
        "effectiveDateTime": "2024-06-12",
        "valueQuantity": {
          "value": 85,
          "system": "http://unitsofmeasure.org",
          "code": "fL",
          "unit": "fL"
        }
      }
    },
    {
      "fullUrl": "urn:uuid:f53009c0-b5a3-4a06-90ae-45bd397b6e54",
      "resource": {
        "resourceType": "Observation",
        "id": "f53009c0-b5a3-4a06-90ae-45bd397b6e54",
        "status": "final",
        "category": [
          {
            "coding": [
              {
                "system": "http://terminology.hl7.org/CodeSystem/observation-category",
                "code": "laboratory",
                "display": "Laboratory"
              }
            ]
          }
        ],
        "code": {
          "coding": [
            {
              "system": "http://loinc.org",
              "code": "5778-6",
              "display": "Color of Urine"
            }
          ],
          "text": "Colour"
        },
        "subject": {
          "reference": "urn:uuid:85822a88-55b1-460c-bb7b-e8fc22d8568f"
        },
        "performer": [
          {
            "extension": [
              {
                "url": "http://hl7.org/fhir/StructureDefinition/data-absent-reason",
                "valueCode": "unknown"
              }
            ]
          }
        ],
        "effectiveDateTime": "2024-06-03",
        "valueString": "Light yellow"
      }
    },
    {
      "fullUrl": "urn:uuid:71503a48-c2cd-4e6a-9fb1-0d9f8d70a05e",
      "resource": {
        "resourceType": "Observation",
        "id": "71503a48-c2cd-4e6a-9fb1-0d9f8d70a05e",
        "status": "final",
        "category": [
          {
            "coding": [
              {
                "system": "http://terminology.hl7.org/CodeSystem/observation-category",
                "code": "laboratory",
                "display": "Laboratory"
              }
            ]
          }
        ],
        "code": {
          "coding": [
            {
              "system": "http://loinc.org",
              "code": "32167-9",
              "display": "Clarity of Urine"
            }
          ],
          "text": "Clarity"
        },
        "subject": {
          "reference": "urn:uuid:85822a88-55b1-460c-bb7b-e8fc22d8568f"
        },
        "performer": [
          {
            "extension": [
              {
                "url": "http://hl7.org/fhir/StructureDefinition/data-absent-reason",
                "valueCode": "unknown"
              }
            ]
          }
        ],
        "effectiveDateTime": "2024-06-03",
        "valueString": "Clear"
      }
    },
    {
      "fullUrl": "urn:uuid:167e068e-26ab-4c3d-8477-88e70a143e62",
      "resource": {
        "resourceType": "Observation",
        "id": "167e068e-26ab-4c3d-8477-88e70a143e62",
        "status": "final",
        "category": [
          {
            "coding": [
              {
                "system": "http://terminology.hl7.org/CodeSystem/observation-category",
                "code": "laboratory",
                "display": "Laboratory"
              }
            ]
          }
        ],
        "code": {
          "coding": [
            {
              "system": "http://loinc.org",
              "code": "5803-2",
              "display": "pH of Urine by Test strip"
            }
          ],
          "text": "pH"
        },
        "subject": {
          "reference": "urn:uuid:85822a88-55b1-460c-bb7b-e8fc22d8568f"
        },
        "performer": [
          {
            "extension": [
              {
                "url": "http://hl7.org/fhir/StructureDefinition/data-absent-reason",
                "valueCode": "unknown"
              }
            ]
          }
        ],
        "effectiveDateTime": "2024-06-03",
        "valueQuantity": {
          "value": 6.0
        }
      }
    },
    {
      "fullUrl": "urn:uuid:7dc87c3e-cf74-4648-85e7-90a9b5fd5bc1",
      "resource": {
        "resourceType": "Observation",
        "id": "7dc87c3e-cf74-4648-85e7-90a9b5fd5bc1",
        "status": "final",
        "category": [
          {
            "coding": [
              {
                "system": "http://terminology.hl7.org/CodeSystem/observation-category",
                "code": "laboratory",
                "display": "Laboratory"
              }
            ]
          }
        ],
        "code": {
          "coding": [
            {
              "system": "http://loinc.org",
              "code": "5811-5",
              "display": "Specific gravity of Urine by Test strip"
            }
          ],
          "text": "Specific Gravity"
        },
        "subject": {
          "reference": "urn:uuid:85822a88-55b1-460c-bb7b-e8fc22d8568f"
        },
        "performer": [
          {
            "extension": [
              {
                "url": "http://hl7.org/fhir/StructureDefinition/data-absent-reason",
                "valueCode": "unknown"
              }
            ]
          }
        ],
        "effectiveDateTime": "2024-06-03",
        "valueQuantity": {
          "value": 1.02
        }
      }
    },
    {
      "fullUrl": "urn:uuid:8c573f90-bd59-427b-b751-7d2fdd80925b",
      "resource": {
        "resourceType": "Observation",
        "id": "8c573f90-bd59-427b-b751-7d2fdd80925b",
        "status": "final",
        "category": [
          {
            "coding": [
              {
                "system": "http://terminology.hl7.org/CodeSystem/observation-category",
                "code": "laboratory",
                "display": "Laboratory"
              }
            ]
          }
        ],
        "code": {
          "coding": [
            {
              "system": "http://loinc.org",
              "code": "20454-5",
              "display": "Protein [Presence] in Urine by Test strip"
            }
          ],
          "text": "Protein"
        },
        "subject": {
          "reference": "urn:uuid:85822a88-55b1-460c-bb7b-e8fc22d8568f"
        },
        "performer": [
          {
            "extension": [
              {
                "url": "http://hl7.org/fhir/StructureDefinition/data-absent-reason",
                "valueCode": "unknown"
              }
            ]
          }
        ],
        "effectiveDateTime": "2024-06-03",
        "valueString": "Negative"
      }
    },
    {
      "fullUrl": "urn:uuid:4f9ef0c2-b431-43b2-8085-2c0a8cd08637",
      "resource": {
        "resourceType": "Observation",
        "id": "4f9ef0c2-b431-43b2-8085-2c0a8cd08637",
        "status": "final",
        "category": [
          {
            "coding": [
              {
                "system": "http://terminology.hl7.org/CodeSystem/observation-category",
                "code": "laboratory",
                "display": "Laboratory"
              }
            ]
          }
        ],
        "code": {
          "coding": [
            {
              "system": "http://loinc.org",
              "code": "25428-4",
              "display": "Glucose [Presence] in Urine by Test strip"
            }
          ],
          "text": "Glucose"
        },
        "subject": {
          "reference": "urn:uuid:85822a88-55b1-460c-bb7b-e8fc22d8568f"
        },
        "performer": [
          {
            "extension": [
              {
                "url": "http://hl7.org/fhir/StructureDefinition/data-absent-reason",
                "valueCode": "unknown"
              }
            ]
          }
        ],
        "effectiveDateTime": "2024-06-03",
        "valueString": "Negative"
      }
    },
    {
      "fullUrl": "urn:uuid:ef08a9b0-89a4-47f7-bd4c-72c4c27c53ae",
      "resource": {
        "resourceType": "Observation",
        "id": "ef08a9b0-89a4-47f7-bd4c-72c4c27c53ae",
        "status": "final",
        "category": [
          {
            "coding": [
              {
                "system": "http://terminology.hl7.org/CodeSystem/observation-category",
                "code": "laboratory",
                "display": "Laboratory"
              }
            ]
          }
        ],
        "code": {
          "coding": [
            {
              "system": "http://loinc.org",
              "code": "2514-8",
              "display": "Ketones [Presence] in Urine by Test strip"
            }
          ],
          "text": "Ketones"
        },
        "subject": {
          "reference": "urn:uuid:85822a88-55b1-460c-bb7b-e8fc22d8568f"
        },
        "performer": [
          {
            "extension": [
              {
                "url": "http://hl7.org/fhir/StructureDefinition/data-absent-reason",
                "valueCode": "unknown"
              }
            ]
          }
        ],
        "effectiveDateTime": "2024-06-03",
        "valueString": "Negative"
      }
    },
    {
      "fullUrl": "urn:uuid:aecc0748-6c5d-4238-90ee-1af66f6c0c51",
      "resource": {
        "resourceType": "Observation",
        "id": "aecc0748-6c5d-4238-90ee-1af66f6c0c51",
        "status": "final",
        "category": [
          {
            "coding": [
              {
                "system": "http://terminology.hl7.org/CodeSystem/observation-category",
                "code": "laboratory",
                "display": "Laboratory"
              }
            ]
          }
        ],
        "code": {
          "coding": [
            {
              "system": "http://loinc.org",
              "code": "5802-4",
              "display": "Nitrite [Presence] in Urine by Test strip"
            }
          ],
          "text": "Nitrites"
        },
        "subject": {
          "reference": "urn:uuid:85822a88-55b1-460c-bb7b-e8fc22d8568f"
        },
        "performer": [
          {
            "extension": [
              {
                "url": "http://hl7.org/fhir/StructureDefinition/data-absent-reason",
                "valueCode": "unknown"
              }
            ]
          }
        ],
        "effectiveDateTime": "2024-06-03",
        "valueString": "Negative"
      }
    },
    {
      "fullUrl": "urn:uuid:18b247c2-0c7e-4dcd-a19c-cf8205ce77cd",
      "resource": {
        "resourceType": "Observation",
        "id": "18b247c2-0c7e-4dcd-a19c-cf8205ce77cd",
        "status": "final",
        "category": [
          {
            "coding": [
              {
                "system": "http://terminology.hl7.org/CodeSystem/observation-category",
                "code": "laboratory",
                "display": "Laboratory"
              }
            ]
          }
        ],
        "code": {
          "coding": [
            {
              "system": "http://loinc.org",
              "code": "5799-2",
              "display": "Leukocyte esterase [Presence] in Urine by Test strip"
            }
          ],
          "text": "Leukocyte Esterase"
        },
        "subject": {
          "reference": "urn:uuid:85822a88-55b1-460c-bb7b-e8fc22d8568f"
        },
        "performer": [
          {
            "extension": [
              {
                "url": "http://hl7.org/fhir/StructureDefinition/data-absent-reason",
                "valueCode": "unknown"
              }
            ]
          }
        ],
        "effectiveDateTime": "2024-06-03",
        "valueString": "Negative"
      }
    },
    {
      "fullUrl": "urn:uuid:75c625ed-822e-4354-9827-aad8874a13ce",
      "resource": {
        "resourceType": "Observation",
        "id": "75c625ed-822e-4354-9827-aad8874a13ce",
        "status": "final",
        "category": [
          {
            "coding": [
              {
                "system": "http://terminology.hl7.org/CodeSystem/observation-category",
                "code": "laboratory",
                "display": "Laboratory"
              }
            ]
          }
        ],
        "code": {
          "coding": [
            {
              "system": "http://loinc.org",
              "code": "5803-2",
              "display": "pH of Urine by Test strip"
            }
          ],
          "text": "pH"
        },
        "subject": {
          "reference": "urn:uuid:85822a88-55b1-460c-bb7b-e8fc22d8568f"
        },
        "performer": [
          {
            "extension": [
              {
                "url": "http://hl7.org/fhir/StructureDefinition/data-absent-reason",
                "valueCode": "unknown"
              }
            ]
          }
        ],
        "effectiveDateTime": "2024-11-05",
        "valueQuantity": {
          "value": 7.0
        }
      }
    },
    {
      "fullUrl": "urn:uuid:3ad4653a-f85c-4118-a7ff-c9dfa934eb56",
      "resource": {
        "resourceType": "Observation",
        "id": "3ad4653a-f85c-4118-a7ff-c9dfa934eb56",
        "status": "final",
        "category": [
          {
            "coding": [
              {
                "system": "http://terminology.hl7.org/CodeSystem/observation-category",
                "code": "laboratory",
                "display": "Laboratory"
              }
            ]
          }
        ],
        "code": {
          "coding": [
            {
              "system": "http://loinc.org",
              "code": "20454-5",
              "display": "Protein [Presence] in Urine by Test strip"
            }
          ],
          "text": "Protein"
        },
        "subject": {
          "reference": "urn:uuid:85822a88-55b1-460c-bb7b-e8fc22d8568f"
        },
        "performer": [
          {
            "extension": [
              {
                "url": "http://hl7.org/fhir/StructureDefinition/data-absent-reason",
                "valueCode": "unknown"
              }
            ]
          }
        ],
        "effectiveDateTime": "2024-11-05",
        "valueString": "Positive"
      }
    },
    {
      "fullUrl": "urn:uuid:b2104279-70e1-4b49-805b-1193f9cfb63e",
      "resource": {
        "resourceType": "Observation",
        "id": "b2104279-70e1-4b49-805b-1193f9cfb63e",
        "status": "final",
        "category": [
          {
            "coding": [
              {
                "system": "http://terminology.hl7.org/CodeSystem/observation-category",
                "code": "laboratory",
                "display": "Laboratory"
              }
            ]
          }
        ],
        "code": {
          "coding": [
            {
              "system": "http://loinc.org",
              "code": "5794-3",
              "display": "Hemoglobin [Presence] in Urine by Test strip"
            }
          ],
          "text": "Blood"
        },
        "subject": {
          "reference": "urn:uuid:85822a88-55b1-460c-bb7b-e8fc22d8568f"
        },
        "performer": [
          {
            "extension": [
              {
                "url": "http://hl7.org/fhir/StructureDefinition/data-absent-reason",
                "valueCode": "unknown"
              }
            ]
          }
        ],
        "effectiveDateTime": "2024-11-05",
        "valueString": "Positive"
      }
    },
    {
      "fullUrl": "urn:uuid:f5449417-bd88-451b-ba0e-61073d30f1a8",
      "resource": {
        "resourceType": "Observation",
        "id": "f5449417-bd88-451b-ba0e-61073d30f1a8",
        "status": "final",
        "category": [
          {
            "coding": [
              {
                "system": "http://terminology.hl7.org/CodeSystem/observation-category",
                "code": "laboratory",
                "display": "Laboratory"
              }
            ]
          }
        ],
        "code": {
          "coding": [
            {
              "system": "http://loinc.org",
              "code": "25428-4",
              "display": "Glucose [Presence] in Urine by Test strip"
            }
          ],
          "text": "Glucose"
        },
        "subject": {
          "reference": "urn:uuid:85822a88-55b1-460c-bb7b-e8fc22d8568f"
        },
        "performer": [
          {
            "extension": [
              {
                "url": "http://hl7.org/fhir/StructureDefinition/data-absent-reason",
                "valueCode": "unknown"
              }
            ]
          }
        ],
        "effectiveDateTime": "2024-11-05",
        "valueString": "Positive"
      }
    },
    {
      "fullUrl": "urn:uuid:49b658b3-315d-4e83-b85c-d57547611dc5",
      "resource": {
        "resourceType": "Observation",
        "id": "49b658b3-315d-4e83-b85c-d57547611dc5",
        "status": "final",
        "category": [
          {
            "coding": [
              {
                "system": "http://terminology.hl7.org/CodeSystem/observation-category",
                "code": "laboratory",
                "display": "Laboratory"
              }
            ]
          }
        ],
        "code": {
          "coding": [
            {
              "system": "http://loinc.org",
              "code": "30405-5",
              "display": "Leukocytes [#/volume] in Urine"
            }
          ],
          "text": "Leucocytes"
        },
        "subject": {
          "reference": "urn:uuid:85822a88-55b1-460c-bb7b-e8fc22d8568f"
        },
        "performer": [
          {
            "extension": [
              {
                "url": "http://hl7.org/fhir/StructureDefinition/data-absent-reason",
                "valueCode": "unknown"
              }
            ]
          }
        ],
        "effectiveDateTime": "2024-11-05",
        "valueQuantity": {
          "value": 370,
          "system": "http://unitsofmeasure.org",
          "code": "10*6/L",
          "unit": "x 10^6/L"
        },
        "referenceRange": [
          {
            "high": {
              "value": 10.0,
              "system": "http://unitsofmeasure.org",
              "code": "10*6/L",
              "unit": "x 10^6/L"
            },
            "text": "(<10)"
          }
        ]
      }
    },
    {
      "fullUrl": "urn:uuid:a0a0db9e-8922-40dd-ad6a-b3109ec3e4c2",
      "resource": {
        "resourceType": "Observation",
        "id": "a0a0db9e-8922-40dd-ad6a-b3109ec3e4c2",
        "status": "final",
        "category": [
          {
            "coding": [
              {
                "system": "http://terminology.hl7.org/CodeSystem/observation-category",
                "code": "laboratory",
                "display": "Laboratory"
              }
            ]
          }
        ],
        "code": {
          "coding": [
            {
              "system": "http://loinc.org",
              "code": "30391-7",
              "display": "Erythrocytes [#/volume] in Urine"
            }
          ],
          "text": "Erythrocytes"
        },
        "subject": {
          "reference": "urn:uuid:85822a88-55b1-460c-bb7b-e8fc22d8568f"
        },
        "performer": [
          {
            "extension": [
              {
                "url": "http://hl7.org/fhir/StructureDefinition/data-absent-reason",
                "valueCode": "unknown"
              }
            ]
          }
        ],
        "effectiveDateTime": "2024-11-05",
        "valueQuantity": {
          "value": 150,
          "system": "http://unitsofmeasure.org",
          "code": "10*6/L",
          "unit": "x 10^6/L"
        },
        "referenceRange": [
          {
            "high": {
              "value": 10.0,
              "system": "http://unitsofmeasure.org",
              "code": "10*6/L",
              "unit": "x 10^6/L"
            },
            "text": "(<10)"
          }
        ]
      }
    },
    {
      "fullUrl": "urn:uuid:a4471b2a-cd87-41dd-921c-37e38d1f597c",
      "resource": {
        "resourceType": "Observation",
        "id": "a4471b2a-cd87-41dd-921c-37e38d1f597c",
        "status": "final",
        "category": [
          {
            "coding": [
              {
                "system": "http://terminology.hl7.org/CodeSystem/observation-category",
                "code": "laboratory",
                "display": "Laboratory"
              }
            ]
          }
        ],
        "code": {
          "coding": [
            {
              "system": "http://loinc.org",
              "code": "30383-4",
              "display": "Epithelial cells [#/volume] in Urine"
            }
          ],
          "text": "Epithelial cells"
        },
        "subject": {
          "reference": "urn:uuid:85822a88-55b1-460c-bb7b-e8fc22d8568f"
        },
        "performer": [
          {
            "extension": [
              {
                "url": "http://hl7.org/fhir/StructureDefinition/data-absent-reason",
                "valueCode": "unknown"
              }
            ]
          }
        ],
        "effectiveDateTime": "2024-11-05",
        "valueString": "Nil"
      }
    },
    {
      "fullUrl": "urn:uuid:db32c14a-eca7-4998-bd7d-7b66dbc1fa23",
      "resource": {
        "resourceType": "Observation",
        "id": "db32c14a-eca7-4998-bd7d-7b66dbc1fa23",
        "status": "final",
        "category": [
          {
            "coding": [
              {
                "system": "http://terminology.hl7.org/CodeSystem/observation-category",
                "code": "laboratory",
                "display": "Laboratory"
              }
            ]
          }
        ],
        "code": {
          "coding": [
            {
              "system": "http://loinc.org",
              "code": "630-4",
              "display": "Bacteria identified in Urine by Culture"
            }
          ],
          "text": "Organism 1"
        },
        "subject": {
          "reference": "urn:uuid:85822a88-55b1-460c-bb7b-e8fc22d8568f"
        },
        "performer": [
          {
            "extension": [
              {
                "url": "http://hl7.org/fhir/StructureDefinition/data-absent-reason",
                "valueCode": "unknown"
              }
            ]
          }
        ],
        "effectiveDateTime": "2024-11-05",
        "valueString": "Escherichia coli"
      }
    },
    {
      "fullUrl": "urn:uuid:aaeaedd1-9f65-43e9-9569-c2a99c9488c9",
      "resource": {
        "resourceType": "Observation",
        "id": "aaeaedd1-9f65-43e9-9569-c2a99c9488c9",
        "status": "final",
        "category": [
          {
            "coding": [
              {
                "system": "http://terminology.hl7.org/CodeSystem/observation-category",
                "code": "laboratory",
                "display": "Laboratory"
              }
            ]
          }
        ],
        "code": {
          "coding": [
            {
              "system": "http://loinc.org",
              "code": "19090-0",
              "display": "Colony count [#/volume] in Urine"
            }
          ],
          "text": "Colony count 1"
        },
        "subject": {
          "reference": "urn:uuid:85822a88-55b1-460c-bb7b-e8fc22d8568f"
        },
        "performer": [
          {
            "extension": [
              {
                "url": "http://hl7.org/fhir/StructureDefinition/data-absent-reason",
                "valueCode": "unknown"
              }
            ]
          }
        ],
        "effectiveDateTime": "2024-11-05",
        "valueString": "10^8"
      }
    },
    {
      "fullUrl": "urn:uuid:bafc1b41-323b-4cc6-971c-145608a96419",
      "resource": {
        "resourceType": "Observation",
        "id": "bafc1b41-323b-4cc6-971c-145608a96419",
        "status": "final",
        "category": [
          {
            "coding": [
              {
                "system": "http://terminology.hl7.org/CodeSystem/observation-category",
                "code": "laboratory",
                "display": "Laboratory"
              }
            ]
          }
        ],
        "code": {
          "coding": [
            {
              "system": "http://loinc.org",
              "code": "18861-5",
              "display": "Amoxicillin [Susceptibility]"
            }
          ],
          "text": "Amp/Amoxycillin"
        },
        "subject": {
          "reference": "urn:uuid:85822a88-55b1-460c-bb7b-e8fc22d8568f"
        },
        "performer": [
          {
            "extension": [
              {
                "url": "http://hl7.org/fhir/StructureDefinition/data-absent-reason",
                "valueCode": "unknown"
              }
            ]
          }
        ],
        "effectiveDateTime": "2024-11-05",
        "valueCodeableConcept": {
          "coding": [
            {
              "system": "http://terminology.hl7.org/CodeSystem/v3-ObservationInterpretation",
              "code": "S",
              "display": "Susceptible"
            }
          ]
        }
      }
    },
    {
      "fullUrl": "urn:uuid:36b2e997-7b1c-4e94-b936-e8bd244da150",
      "resource": {
        "resourceType": "Observation",
        "id": "36b2e997-7b1c-4e94-b936-e8bd244da150",
        "status": "final",
        "category": [
          {
            "coding": [
              {
                "system": "http://terminology.hl7.org/CodeSystem/observation-category",
                "code": "laboratory",
                "display": "Laboratory"
              }
            ]
          }
        ],
        "code": {
          "coding": [
            {
              "system": "http://loinc.org",
              "code": "18862-3",
              "display": "Amoxicillin+Clavulanate [Susceptibility]"
            }
          ],
          "text": "Amoxycillin/clav. acid"
        },
        "subject": {
          "reference": "urn:uuid:85822a88-55b1-460c-bb7b-e8fc22d8568f"
        },
        "performer": [
          {
            "extension": [
              {
                "url": "http://hl7.org/fhir/StructureDefinition/data-absent-reason",
                "valueCode": "unknown"
              }
            ]
          }
        ],
        "effectiveDateTime": "2024-11-05",
        "valueCodeableConcept": {
          "coding": [
            {
              "system": "http://terminology.hl7.org/CodeSystem/v3-ObservationInterpretation",
              "code": "S",
              "display": "Susceptible"
            }
          ]
        }
      }
    },
    {
      "fullUrl": "urn:uuid:687e56d0-e45f-4bbd-b2e5-1df234f7d5e8",
      "resource": {
        "resourceType": "Observation",
        "id": "687e56d0-e45f-4bbd-b2e5-1df234f7d5e8",
        "status": "final",
        "category": [
          {
            "coding": [
              {
                "system": "http://terminology.hl7.org/CodeSystem/observation-category",
                "code": "laboratory",
                "display": "Laboratory"
              }
            ]
          }
        ],
        "code": {
          "coding": [
            {
              "system": "http://loinc.org",
              "code": "18897-9",
              "display": "Cephalexin [Susceptibility]"
            }
          ],
          "text": "Cephalexin"
        },
        "subject": {
          "reference": "urn:uuid:85822a88-55b1-460c-bb7b-e8fc22d8568f"
        },
        "performer": [
          {
            "extension": [
              {
                "url": "http://hl7.org/fhir/StructureDefinition/data-absent-reason",
                "valueCode": "unknown"
              }
            ]
          }
        ],
        "effectiveDateTime": "2024-11-05",
        "valueCodeableConcept": {
          "coding": [
            {
              "system": "http://terminology.hl7.org/CodeSystem/v3-ObservationInterpretation",
              "code": "S",
              "display": "Susceptible"
            }
          ]
        }
      }
    },
    {
      "fullUrl": "urn:uuid:1e813570-e34f-49ae-9b78-c0ccaccbdb3b",
      "resource": {
        "resourceType": "Observation",
        "id": "1e813570-e34f-49ae-9b78-c0ccaccbdb3b",
        "status": "final",
        "category": [
          {
            "coding": [
              {
                "system": "http://terminology.hl7.org/CodeSystem/observation-category",
                "code": "laboratory",
                "display": "Laboratory"
              }
            ]
          }
        ],
        "code": {
          "coding": [
            {
              "system": "http://loinc.org",
              "code": "18997-7",
              "display": "Trimethoprim [Susceptibility]"
            }
          ],
          "text": "Trimethoprim"
        },
        "subject": {
          "reference": "urn:uuid:85822a88-55b1-460c-bb7b-e8fc22d8568f"
        },
        "performer": [
          {
            "extension": [
              {
                "url": "http://hl7.org/fhir/StructureDefinition/data-absent-reason",
                "valueCode": "unknown"
              }
            ]
          }
        ],
        "effectiveDateTime": "2024-11-05",
        "valueCodeableConcept": {
          "coding": [
            {
              "system": "http://terminology.hl7.org/CodeSystem/v3-ObservationInterpretation",
              "code": "S",
              "display": "Susceptible"
            }
          ]
        }
      }
    },
    {
      "fullUrl": "urn:uuid:bd10f9e1-df70-4aef-bfaa-b65aca083868",
      "resource": {
        "resourceType": "Observation",
        "id": "bd10f9e1-df70-4aef-bfaa-b65aca083868",
        "status": "final",
        "category": [
          {
            "coding": [
              {
                "system": "http://terminology.hl7.org/CodeSystem/observation-category",
                "code": "laboratory",
                "display": "Laboratory"
              }
            ]
          }
        ],
        "code": {
          "coding": [
            {
              "system": "http://loinc.org",
              "code": "18955-5",
              "display": "Nitrofurantoin [Susceptibility]"
            }
          ],
          "text": "Nitrofurantoin"
        },
        "subject": {
          "reference": "urn:uuid:85822a88-55b1-460c-bb7b-e8fc22d8568f"
        },
        "performer": [
          {
            "extension": [
              {
                "url": "http://hl7.org/fhir/StructureDefinition/data-absent-reason",
                "valueCode": "unknown"
              }
            ]
          }
        ],
        "effectiveDateTime": "2024-11-05",
        "valueCodeableConcept": {
          "coding": [
            {
              "system": "http://terminology.hl7.org/CodeSystem/v3-ObservationInterpretation",
              "code": "S",
              "display": "Susceptible"
            }
          ]
        }
      }
    },
    {
      "fullUrl": "urn:uuid:db34a194-c947-4624-b277-1d72ef9a5661",
      "resource": {
        "resourceType": "Observation",
        "id": "db34a194-c947-4624-b277-1d72ef9a5661",
        "status": "final",
        "category": [
          {
            "coding": [
              {
                "system": "http://terminology.hl7.org/CodeSystem/observation-category",
                "code": "laboratory",
                "display": "Laboratory"
              }
            ]
          }
        ],
        "code": {
          "coding": [
            {
              "system": "http://loinc.org",
              "code": "18928-2",
              "display": "Gentamicin [Susceptibility]"
            }
          ],
          "text": "Gentamicin"
        },
        "subject": {
          "reference": "urn:uuid:85822a88-55b1-460c-bb7b-e8fc22d8568f"
        },
        "performer": [
          {
            "extension": [
              {
                "url": "http://hl7.org/fhir/StructureDefinition/data-absent-reason",
                "valueCode": "unknown"
              }
            ]
          }
        ],
        "effectiveDateTime": "2024-11-05",
        "valueCodeableConcept": {
          "coding": [
            {
              "system": "http://terminology.hl7.org/CodeSystem/v3-ObservationInterpretation",
              "code": "S",
              "display": "Susceptible"
            }
          ]
        }
      }
    },
    {
      "fullUrl": "urn:uuid:926c0a30-3f52-447d-89c5-e4c381580c3a",
      "resource": {
        "resourceType": "Observation",
        "id": "926c0a30-3f52-447d-89c5-e4c381580c3a",
        "status": "final",
        "category": [
          {
            "coding": [
              {
                "system": "http://terminology.hl7.org/CodeSystem/observation-category",
                "code": "laboratory",
                "display": "Laboratory"
              }
            ]
          }
        ],
        "code": {
          "coding": [
            {
              "system": "http://loinc.org",
              "code": "18956-3",
              "display": "Norfloxacin [Susceptibility]"
            }
          ],
          "text": "Norfloxacin"
        },
        "subject": {
          "reference": "urn:uuid:85822a88-55b1-460c-bb7b-e8fc22d8568f"
        },
        "performer": [
          {
            "extension": [
              {
                "url": "http://hl7.org/fhir/StructureDefinition/data-absent-reason",
                "valueCode": "unknown"
              }
            ]
          }
        ],
        "effectiveDateTime": "2024-11-05",
        "valueCodeableConcept": {
          "coding": [
            {
              "system": "http://terminology.hl7.org/CodeSystem/v3-ObservationInterpretation",
              "code": "S",
              "display": "Susceptible"
            }
          ]
        }
      }
    }
    ,
    {
      "fullUrl": "urn:uuid:8924f910-53b3-4125-b0f2-58d0068f8983",
      "resource": {
        "resourceType": "Observation",
        "meta": {
          "profile": [
            "http://hl7.org.au/fhir/ps/StructureDefinition/au-ps-smokingstatus"
          ]
        },
        "status": "final",
        "category": [
          {
            "coding": [
              {
                "system": "http://terminology.hl7.org/CodeSystem/observation-category",
                "code": "social-history",
                "display": "Social History"
              }
            ],
            "text": "Social History"
          }
        ],
        "code": {
          "coding": [
            {
              "system": "http://snomed.info/sct",
              "code": "1747861000168109"
            },
            {
              "system": "http://loinc.org",
              "code": "72166-2"
            }
          ],
          "text": "Smoking status"
        },
        "subject": {
          "reference": "urn:uuid:85822a88-55b1-460c-bb7b-e8fc22d8568f"
        },
        "effectiveDateTime": "2024-10-28",
        "valueCodeableConcept": {
          "coding": [
            {
              "system": "http://snomed.info/sct",
              "code": "266919005"
            }
          ],
          "text": "Lifetime non-smoker"
        }
      }
    },
    {
      "fullUrl": "urn:uuid:40c3b2a7-e673-4f83-8dd8-2b112a88775e",
      "resource": {
        "resourceType": "Device",
        "identifier": [
          {
            "system": "http://example.com/CIS-ID",
            "value": "12345"
          }
        ],
        "manufacturer": "Some Clinical Information System Manufacturer",
        "deviceName": [
          {
            "name": "Name of Device",
            "type": "model-name"
          }
        ],
        "modelNumber": "2.0.1",
        "type": {
          "coding": [
            {
              "system": "http://snomed.info/sct",
              "code": "706593004",
              "display": "Clinical information system"
            }
          ]
        }
      }
    }
  ],
  "signature": {
    "type": [
      {
        "system": "urn:iso-astm:E1762-95:2013",
        "code": "1.2.840.10065.1.12.1.5",
        "display": "Verification Signature"
      }
    ],
    "when": "2024-11-07T10:02:11.269+11:00",
    "who": {
      "reference": "urn:uuid:40c3b2a7-e673-4f83-8dd8-2b112a88775e"
    },
    "targetFormat": "application/fhir+json",
    "sigFormat": "application/jose",
    "data": ""
  }
}