<?xml version="1.0" encoding="UTF-8"?>
<Bundle xmlns="http://hl7.org/fhir">
  <id value="aups-referral-endoconsult-curated"/>
  <meta>
    <profile value="http://hl7.org.au/fhir/ps/StructureDefinition/au-ps-bundle"/>
  </meta>
  <identifier>
    <system value="urn:ietf:rfc:3986"/>
    <value value="urn:uuid:a78f146f-cadf-4c4a-84e2-c2e7dc41dd74"/>
  </identifier>
  <type value="document"/>
  <timestamp value="2024-10-28T11:57:11.269+11:00"/>
  <entry>
    <fullUrl value="urn:uuid:de2c9e3f-c4a8-4a65-b355-b08cd2c58c7c"/>
    <resource>
      <Composition>
        <id value="de2c9e3f-c4a8-4a65-b355-b08cd2c58c7c"/>
        <meta>
          <profile value="http://hl7.org.au/fhir/ps/StructureDefinition/au-ps-composition"/>
        </meta>
        <status value="final"/>
        <type>
          <coding>
            <system value="http://loinc.org"/>
            <code value="60591-5"/>
          </coding>
        </type>
        <subject>
          <reference value="urn:uuid:85822a88-55b1-460c-bb7b-e8fc22d8568f"/>
        </subject>
        <date value="2024-10-28T11:57:10.868+11:00"/>
        <author>
          <reference value="urn:uuid:afead11c-3bee-4020-af4f-44040abfa961"/>
        </author>
        <title value="Patient Summary for Joyce Johnson as of 28 OCT 2024"/>
        <attester>
          <mode value="professional"/>
          <time value="2024-10-28T11:57:11.269+11:00"/>
          <party>
            <reference value="urn:uuid:afead11c-3bee-4020-af4f-44040abfa961"/>
          </party>
        </attester>
        <custodian>
          <reference value="urn:uuid:14292353-98f0-43b3-a25b-406baf3f9175"/>
        </custodian>
        <event>
          <code>
            <coding>
              <system value="http://terminology.hl7.org/CodeSystem/v3-ActClass"/>
              <code value="PCPR"/>
            </coding>
          </code>
          <period>
            <end value="2024-10-28T11:57:10+11:00"/>
          </period>
        </event>
        <section>
          <title value="Allergies and Intolerances"/>
          <code>
            <coding>
              <system value="http://loinc.org"/>
              <code value="48765-2"/>
            </coding>
          </code>
          <text>
            <status value="generated"/><div xmlns="http://www.w3.org/1999/xhtml">No known allergies.</div>
          </text>
          <entry>
            <reference value="urn:uuid:0baac8a9-69b8-4e99-9460-03df08f92c98"/>
          </entry>
        </section>
        <section>
          <title value="Medication Summary"/>
          <code>
            <coding>
              <system value="http://loinc.org"/>
              <code value="10160-0"/>
            </coding>
          </code>
          <text>
            <status value="generated"/><div xmlns="http://www.w3.org/1999/xhtml">
            <table border="1">
                <thead>
                  <tr>
                    <th>Medicine</th>
                    <th>Dose</th>
                    <th>Status</th>
                    <th>Last Updated</th>
                    <th>Comment</th>
                  </tr>
                </thead>
                <tbody>
                  <tr>
                    <td>Prenatal vitamins</td>
                    <td>1 tablet daily</td>
                    <td>Active</td>
                    <td>28/10/2024</td>
                    <td>Pt prefers Blackmores</td>
                  </tr>
                  <tr>
                    <td>Insulin (Humulin N)</td>
                    <td>10 units subcutaneously in the morning and evening</td>
                    <td>Active</td>
                    <td>28/10/2024</td>
                    <td></td>
                  </tr>
                  <tr>
                    <td>Insulin (Humulin R)</td>
                    <td>5 units subcutaneously before each meal</td>
                    <td>Active</td>
                    <td>28/10/2024</td>
                    <td></td>
                  </tr>
                  <tr>
                    <td>Metformin</td>
                    <td>500mg twice daily</td>
                    <td>Active</td>
                    <td>28/10/2024</td>
                    <td></td>
                  </tr>
                </tbody>
              </table>
            </div>
          </text>
          <entry>
            <reference value="urn:uuid:7193cc2f-d03e-42cb-ab55-4130904505d5"/>
          </entry>
          <entry>
            <reference value="urn:uuid:1c4dd2b6-a9ee-4ba3-9b37-c1aff277c417"/>
          </entry>
          <entry>
            <reference value="urn:uuid:166c2afe-c6fb-4928-88f0-1c1a1e5e65cd"/>
          </entry>
          <entry>
            <reference value="urn:uuid:05292a9c-2bc9-43a7-b935-0a61ede063da"/>
          </entry>
        </section>
        <section>
          <title value="Problem list"/>
          <code>
            <coding>
              <system value="http://loinc.org"/>
              <code value="11450-4"/>
            </coding>
          </code>
          <text>
            <status value="generated"/><div xmlns="http://www.w3.org/1999/xhtml">
            <table border="1">
                <thead>
                  <tr>
                    <th>Problem/Diagnosis</th>
                    <th>Status</th>
                    <th>Comment</th>
                  </tr>
                </thead>
                <tbody>
                  <tr>
                    <td>Gestational diabetes</td>
                    <td>Active</td>
                    <td>Recent diagnosis, referring to Endo &amp; Dietitian</td>
                  </tr>
                  <tr>
                    <td>Anaemia</td>
                    <td>Active</td>
                    <td></td>
                  </tr>
                </tbody>
              </table>
            </div>
          </text>
          <entry>
            <reference value="urn:uuid:cb647933-b18c-42ef-a1c8-ae137921ba83"/>
          </entry>
          <entry>
            <reference value="urn:uuid:78f75926-3ee1-44a7-9424-6178d905af63"/>
          </entry>
        </section>
        <section>
          <title value="History of Immunizations"/>
          <code>
            <coding>
              <system value="http://loinc.org"/>
              <code value="11369-6"/>
            </coding>
          </code>
          <text>
            <status value="generated"/><div xmlns="http://www.w3.org/1999/xhtml">
            <table border="1">
                <thead>
                  <tr>
                    <th>Vaccine</th>
                    <th>Date of administration</th>
                    <th>Comment</th>
                  </tr>
                </thead>
                <tbody>
                  <tr>
                    <td>Diphtheria + tetanus + pertussis 5 component adolescent/adult vaccine injection, 0.5 mL syringe</td>
                    <td>05/10/2024</td>
                    <td></td>
                  </tr>
                  <tr>
                    <td>Influenza vaccine</td>
                    <td>05/05/2024</td>
                    <td></td>
                  </tr>
                  <tr>
                    <td>Influenza vaccine</td>
                    <td>15/05/2023</td>
                    <td>Pt reported localised redness and swelling post previous flu vax last year. Monitor for rxn.</td>
                  </tr>
                  <tr>
                    <td>COVID-19 mRNA-1273 Vaccine (Moderna) injection, 0.5 mL syringe</td>
                    <td>15/05/2023</td>
                    <td></td>
                  </tr>
                </tbody>
              </table>
            </div>
          </text>
          <entry>
            <reference value="urn:uuid:784ae7d5-22df-442d-b932-0c001720136c"/>
          </entry>
          <entry>
            <reference value="urn:uuid:97767fb5-3be7-4d16-9ee8-76c47a4ab0ce"/>
          </entry>
          <entry>
            <reference value="urn:uuid:62eb70e3-e814-4785-80d3-8aa45b1fc367"/>
          </entry>
          <entry>
            <reference value="urn:uuid:2f3537b2-f50c-4a2a-ab92-30fdcfe5fd96"/>
          </entry>
        </section>
        <section>
          <title value="Pregnancy Information"/>
          <code>
            <coding>
              <system value="http://loinc.org"/>
              <code value="10162-6"/>
            </coding>
          </code>
          <text>
            <status value="generated"/><div xmlns="http://www.w3.org/1999/xhtml">Pregnancy confirmed 12/06/2024. Estimated Date of Delivery  03/02/2025.</div>
          </text>
          <entry>
            <reference value="urn:uuid:f85ad223-7bed-46f3-893d-e89d6082f9a9"/>
          </entry>
        </section>
        <section>
          <extension url="http://hl7.org/fhir/StructureDefinition/note">
            <valueAnnotation>
                <authorReference>
                  <reference value="urn:uuid:0c0e2c4f-a748-4cc7-afde-f09bdc2d6fa9"/>
                </authorReference>
                <time value="2024-10-28T11:57:10.868+11:00"/>
                <text value="Joyce is a 39-year-old woman who is currently pregnant and lives with her partner in a stable home environment. She works in an office-based job, which involves prolonged periods of sitting, but she attempting to increase her activity outside of work through regular walks and light exercise. She has a strong support system, including her partner, family, and close friends.&#xa;&#xa;Joyce does not smoke and does not consume alcohol during pregnancy. She follows a generally balanced diet but occasionally consumes convenience foods due to her busy work schedule. She has access to healthcare services and attends routine antenatal appointments as recommended.&#xa;&#xa;She reports moderate stress related to work responsibilities and preparing for the baby’s arrival but manages it through mindfulness techniques and social support. Financially, she and her partner are stable, with plans in place for parental leave and childcare. She has no history of substance use and is not exposed to occupational hazards that would pose a risk to her pregnancy.&#xa;&#xa;Overall, Joyce maintains a healthy and supportive lifestyle, with good access to medical care and a positive outlook on her pregnancy."/>
            </valueAnnotation>
        </extension>
        <title value="Social History"/>
          <code>
            <coding>
              <system value="http://loinc.org"/>
              <code value="29762-2"/>
            </coding>
          </code>
          <text>
            <status value="extensions"/><div xmlns="http://www.w3.org/1999/xhtml">
            Joyce is a 39-year-old woman who is currently pregnant and lives with her partner in a stable home environment. She works in an office-based job, which involves prolonged periods of sitting, but she attempting to increase her activity outside of work through regular walks and light exercise. She has a strong support system, including her partner, family, and close friends.&#xa;&#xa;
Joyce does not smoke and does not consume alcohol during pregnancy. She follows a generally balanced diet but occasionally consumes convenience foods due to her busy work schedule. She has access to healthcare services and attends routine antenatal appointments as recommended.&#xa;&#xa;
She reports moderate stress related to work responsibilities and preparing for the baby’s arrival but manages it through mindfulness techniques and social support. Financially, she and her partner are stable, with plans in place for parental leave and childcare. She has no history of substance use and is not exposed to occupational hazards that would pose a risk to her pregnancy.&#xa;&#xa;
Overall, Joyce maintains a healthy and supportive lifestyle, with good access to medical care and a positive outlook on her pregnancy.</div>
          </text>
          <entry>
            <reference value="urn:uuid:8924f910-53b3-4125-b0f2-58d0068f8983"/>
          </entry>
        </section>
      </Composition>
    </resource>
  </entry>
  <entry>
    <fullUrl value="urn:uuid:85822a88-55b1-460c-bb7b-e8fc22d8568f"/>
    <resource>
      <Patient>
        <id value="85822a88-55b1-460c-bb7b-e8fc22d8568f"/>
        <meta>
          <profile value="http://hl7.org.au/fhir/ps/StructureDefinition/au-ps-patient"/>
        </meta>
        <extension url="http://hl7.org.au/fhir/StructureDefinition/indigenous-status">
          <valueCoding>
            <system value="https://healthterminologies.gov.au/fhir/CodeSystem/australian-indigenous-status-1"/>
            <code value="4"/>
            <display value="Neither Aboriginal nor Torres Strait Islander origin"/>
          </valueCoding>
        </extension>
        <identifier>
          <type>
            <coding>
              <system value="http://terminology.hl7.org/CodeSystem/v2-0203"/>
              <code value="NI"/>
            </coding>
            <text value="IHI"/>
          </type>
          <system value="http://ns.electronichealth.net.au/id/hi/ihi/1.0"/>
          <value value="8003608500314679"/>
        </identifier>
        <identifier>
          <type>
            <coding>
              <system value="http://terminology.hl7.org/CodeSystem/v2-0203"/>
              <code value="MC"/>
            </coding>
            <text value="Medicare Number"/>
          </type>
          <system value="http://ns.electronichealth.net.au/id/medicare-number"/>
          <value value="29545401611"/>
        </identifier>
        <name>
          <family value="JOHNSON"/>
          <given value="Joyce"/>
        </name>
        <telecom>
          <system value="phone"/>
          <value value="0270108012"/>
          <use value="home"/>
        </telecom>
        <telecom>
          <system value="phone"/>
          <value value="0491571804"/>
          <use value="mobile"/>
        </telecom>
        <gender value="female"/>
        <birthDate value="1985-02-06"/>
        <address>
          <line value="139 River Lane"/>
          <city value="Palmvale"/>
          <state value="NSW"/>
          <postalCode value="2484"/>
          <country value="AU"/>
        </address>
        <generalPractitioner>
          <reference value="urn:uuid:afead11c-3bee-4020-af4f-44040abfa961"/>
        </generalPractitioner>
      </Patient>
    </resource>
  </entry>
  <entry>
    <fullUrl value="urn:uuid:0baac8a9-69b8-4e99-9460-03df08f92c98"/>
    <resource>
      <AllergyIntolerance>
        <id value="0baac8a9-69b8-4e99-9460-03df08f92c98"/>
        <meta>
          <profile value="http://hl7.org.au/fhir/ps/StructureDefinition/au-ps-allergyintolerance"/>
        </meta>
        <clinicalStatus>
          <coding>
            <system value="http://terminology.hl7.org/CodeSystem/allergyintolerance-clinical"/>
            <code value="active"/>
          </coding>
        </clinicalStatus>
        <code>
          <coding>
            <system value="http://snomed.info/sct"/>
            <code value="716186003"/>
          </coding>
          <text value="No known allergy"/>
        </code>
        <patient>
          <reference value="urn:uuid:85822a88-55b1-460c-bb7b-e8fc22d8568f"/>
        </patient>
      </AllergyIntolerance>
    </resource>
  </entry>
  <entry>
    <fullUrl value="urn:uuid:05292a9c-2bc9-43a7-b935-0a61ede063da"/>
    <resource>
      <MedicationStatement>
        <id value="05292a9c-2bc9-43a7-b935-0a61ede063da"/>
        <meta>
          <profile value="http://hl7.org.au/fhir/ps/StructureDefinition/au-ps-medicationstatement"/>
        </meta>
        <contained>
          <Medication>
            <id value="metformin"/>
            <meta>
              <profile value="http://hl7.org.au/fhir/ps/StructureDefinition/au-ps-medication"/>
            </meta>
            <code>
              <coding>
                <system value="http://snomed.info/sct"/>
                <code value="109081006"/>
                <display value="Metformin"/>
              </coding>
              <text value="Metformin"/>
            </code>
            <form>
              <coding>
                <system value="http://snomed.info/sct"/>
                <code value="421026006"/>
                <display value="Tablet"/>
              </coding>
              <text value="Tablet"/>
            </form>
          </Medication>
        </contained>
        <status value="active"/>
        <medicationReference>
          <reference value="#metformin"/>
        </medicationReference>
        <subject>
          <reference value="urn:uuid:85822a88-55b1-460c-bb7b-e8fc22d8568f"/>
        </subject>
        <effectivePeriod>
          <start value="2024"/>
        </effectivePeriod>
        <dateAsserted value="2024-10-24"/>
        <dosage>
          <text value="500mg twice daily"/>
          <timing>
            <repeat>
              <frequency value="2" />
              <period value="1" />
              <periodUnit value="d" />
            </repeat>
          </timing>
          <route>
            <coding>
              <system value="http://snomed.info/sct"/>
              <code value="26643006"/>
              <display value="Oral route"/>
            </coding>
            <text value="Oral route"/>
          </route>
        </dosage>
      </MedicationStatement>
    </resource>
  </entry>
  <entry>
    <fullUrl value="urn:uuid:166c2afe-c6fb-4928-88f0-1c1a1e5e65cd"/>
    <resource>
      <MedicationStatement>
        <id value="166c2afe-c6fb-4928-88f0-1c1a1e5e65cd"/>
        <meta>
          <profile value="http://hl7.org.au/fhir/ps/StructureDefinition/au-ps-medicationstatement"/>
        </meta>
        <status value="active"/>
        <medicationCodeableConcept>
          <text value ="Prenatal vitamins"/>
        </medicationCodeableConcept>
        <subject>
          <reference value="urn:uuid:85822a88-55b1-460c-bb7b-e8fc22d8568f"/>
        </subject>
        <effectivePeriod>
          <start value="2024"/>
        </effectivePeriod>
        <dateAsserted value="2024-10-24"/>
        <note>
          <text value="Pt prefers Blackmores"/>
        </note>
        <dosage>
          <text value="1 tablet daily"/>
          <route>
            <coding>
              <system value="http://snomed.info/sct"/>
              <code value="26643006"/>
              <display value="Oral route"/>
            </coding>
            <text value="Oral route"/>
          </route>
        </dosage>
      </MedicationStatement>
    </resource>
  </entry>
  <entry>
    <fullUrl value="urn:uuid:7193cc2f-d03e-42cb-ab55-4130904505d5"/>
    <resource>
      <MedicationStatement>
        <id value="7193cc2f-d03e-42cb-ab55-4130904505d5"/>
        <meta>
          <profile value="http://hl7.org.au/fhir/ps/StructureDefinition/au-ps-medicationstatement"/>
        </meta>
        <status value="active"/>
        <medicationCodeableConcept>
          <text value ="Insulin (Humulin N)"/>
        </medicationCodeableConcept>
        <subject>
          <reference value="urn:uuid:85822a88-55b1-460c-bb7b-e8fc22d8568f"/>
        </subject>
        <effectivePeriod>
          <start value="2024"/>
        </effectivePeriod>
        <dateAsserted value="2024-10-24"/>
        <dosage>
          <text value="10 units subcutaneously in the morning and evening"/>
        </dosage>
      </MedicationStatement>
    </resource>
  </entry>
  <entry>
    <fullUrl value="urn:uuid:1c4dd2b6-a9ee-4ba3-9b37-c1aff277c417"/>
    <resource>
      <MedicationStatement>
        <id value="1c4dd2b6-a9ee-4ba3-9b37-c1aff277c417"/>
        <meta>
          <profile value="http://hl7.org.au/fhir/ps/StructureDefinition/au-ps-medicationstatement"/>
        </meta>
        <status value="active"/>
        <medicationCodeableConcept>
          <text value ="Insulin (Humulin R)"/>
        </medicationCodeableConcept>
        <subject>
          <reference value="urn:uuid:85822a88-55b1-460c-bb7b-e8fc22d8568f"/>
        </subject>
        <effectivePeriod>
          <start value="2024"/>
        </effectivePeriod>
        <dateAsserted value="2024-10-24"/>
        <dosage>
          <text value="5 units subcutaneously before each meal"/>
        </dosage>
      </MedicationStatement>
    </resource>
  </entry>
  <entry>
    <fullUrl value="urn:uuid:cb647933-b18c-42ef-a1c8-ae137921ba83"/>
    <resource>
      <Condition>
        <id value="cb647933-b18c-42ef-a1c8-ae137921ba83"/>
        <meta>
          <profile value="http://hl7.org.au/fhir/ps/StructureDefinition/au-ps-condition"/>
        </meta>
        <clinicalStatus>
          <coding>
              <system value="http://terminology.hl7.org/CodeSystem/condition-clinical"/>
              <code value="active"/>
          </coding>
        </clinicalStatus>
        <category>
          <coding>
            <system value="http://terminology.hl7.org/CodeSystem/condition-category"/>
            <code value="problem-list-item"/>
          </coding>
          <text value="Problem"/>
        </category>
        <code>
          <coding>
            <system value="http://snomed.info/sct"/>
            <code value="11687002"/>
            <display value="Gestational diabetes mellitus"/>
          </coding>
          <text value="Gestational diabetes"/>
        </code>
        <subject>
          <reference value="urn:uuid:85822a88-55b1-460c-bb7b-e8fc22d8568f"/>
        </subject>
        <note>
          <text value="Recent diagnosis, referring to Endo &amp; Dietitian"/>
        </note>
      </Condition>
    </resource>
  </entry>
  <entry>
    <fullUrl value="urn:uuid:78f75926-3ee1-44a7-9424-6178d905af63"/>
    <resource>
      <Condition>
        <id value="78f75926-3ee1-44a7-9424-6178d905af63"/>
        <meta>
          <profile value="http://hl7.org.au/fhir/ps/StructureDefinition/au-ps-condition"/>
        </meta>
        <clinicalStatus>
          <coding>
              <system value="http://terminology.hl7.org/CodeSystem/condition-clinical"/>
              <code value="active"/>
          </coding>
        </clinicalStatus>
        <category>
          <coding>
            <system value="http://terminology.hl7.org/CodeSystem/condition-category"/>
            <code value="problem-list-item"/>
          </coding>
          <text value="Problem"/>
        </category>
        <code>
          <coding>
            <system value="http://snomed.info/sct"/>
            <code value="271737000"/>
            <display value="Anaemia"/>
          </coding>
          <text value="Anaemia"/>
        </code>
        <subject>
          <reference value="urn:uuid:85822a88-55b1-460c-bb7b-e8fc22d8568f"/>
        </subject>
      </Condition>
    </resource>
  </entry>
  <entry>
    <fullUrl value="urn:uuid:784ae7d5-22df-442d-b932-0c001720136c"/>
    <resource>
      <Immunization>
        <id value="784ae7d5-22df-442d-b932-0c001720136c"/>
        <meta>
          <profile value="http://hl7.org.au/fhir/ps/StructureDefinition/au-ps-immunization"/>
        </meta>
        <status value="completed"/>
        <vaccineCode>
          <coding>
            <system value="http://snomed.info/sct"/>
            <version value="http://snomed.info/sct/32506021000036107/version/20250131"/>
            <code value="1789171000168108"/>
            <display value="Diphtheria + tetanus + pertussis 5 component adolescent/adult vaccine injection, 0.5 mL syringe"/>
          </coding>
          <text value="Diphtheria + tetanus + pertussis 5 component adolescent/adult vaccine injection, 0.5 mL syringe"/>
        </vaccineCode>
        <patient>
          <reference value="urn:uuid:85822a88-55b1-460c-bb7b-e8fc22d8568f"/>
        </patient>
        <occurrenceDateTime value="2024-10-05"/>
      </Immunization>
    </resource>
  </entry>
  <entry>
    <fullUrl value="urn:uuid:ad82d71b-ca1c-4db6-a726-cc70cf638306"/>
    <resource>
      <Observation>
        <id value="ad82d71b-ca1c-4db6-a726-cc70cf638306"/>
        <meta>
          <profile value="http://hl7.org/fhir/uv/ips/StructureDefinition/Observation-pregnancy-edd-uv-ips"/>
        </meta>
        <status value="final"/>
        <category>
          <coding>
            <system value="http://terminology.hl7.org/CodeSystem/observation-category"/>
            <code value="imaging"/>
            <display value="Imaging"/>
          </coding>
        </category>
        <code>
          <coding>
            <system value="http://snomed.info/sct"/>
            <code value="161714006"/>
            <display value="Estimated date of delivery"/>
          </coding>
          <coding>
            <system value="http://loinc.org"/>
            <code value="11778-8"/>
            <display value="Delivery date Estimated"/>
          </coding>
        </code>
        <subject>
          <reference value="urn:uuid:85822a88-55b1-460c-bb7b-e8fc22d8568f"/>
        </subject>
        <effectiveDateTime value="2024-06-12"/>
        <valueDateTime value="2025-02-03"/>
      </Observation>
    </resource>
  </entry>
  <entry>
    <fullUrl value="urn:uuid:f85ad223-7bed-46f3-893d-e89d6082f9a9"/>
    <resource>
      <Observation>
        <id value="f85ad223-7bed-46f3-893d-e89d6082f9a9"/>
        <meta>
          <profile value="http://hl7.org/fhir/uv/ips/StructureDefinition/Observation-pregnancy-status-uv-ips"/>
        </meta>
        <status value="final"/>
        <category>
          <coding>
            <system value="http://terminology.hl7.org/CodeSystem/observation-category"/>
            <code value="social-history"/>
            <display value="Social History"/>
          </coding>
        </category>
        <code>
          <coding>
            <system value="http://loinc.org"/>
            <code value="82810-3"/>
            <display value="Pregnancy status"/>
          </coding>
        </code>
        <subject>
          <reference value="urn:uuid:85822a88-55b1-460c-bb7b-e8fc22d8568f"/>
        </subject>
        <effectiveDateTime value="2024-06-12"/>
        <valueCodeableConcept>
          <coding>
            <system value="http://snomed.info/sct"/>
            <code value="77386006"/>
            <display value="Pregnant"/>
          </coding>
          <coding>
            <system value="http://loinc.org"/>
            <code value="LA15173-0"/>
            <display value="Pregnant"/>
          </coding>
          <text value="Pregnant"/>
        </valueCodeableConcept>
        <hasMember>
          <reference value="urn:uuid:ad82d71b-ca1c-4db6-a726-cc70cf638306"/>
        </hasMember>
      </Observation>
    </resource>
  </entry>
  <entry>
    <fullUrl value="urn:uuid:afead11c-3bee-4020-af4f-44040abfa961"/>
    <resource>
      <PractitionerRole>
        <id value="afead11c-3bee-4020-af4f-44040abfa961"/>
        <meta>
          <profile value="http://hl7.org.au/fhir/ps/StructureDefinition/au-ps-practitionerrole"/>
        </meta>
        <identifier>
          <type>
            <coding>
              <system value="http://terminology.hl7.org.au/CodeSystem/v2-0203"/>
              <code value="UPIN"/>
            </coding>
            <text value="Medicare Provider Number"/>
          </type>
          <system value="http://ns.electronichealth.net.au/id/medicare-provider-number"/>
          <value value="2448681J"/>
        </identifier>
        <practitioner>
          <reference value="urn:uuid:0c0e2c4f-a748-4cc7-afde-f09bdc2d6fa9"/>
        </practitioner>
        <organization>
          <reference value="urn:uuid:14292353-98f0-43b3-a25b-406baf3f9175"/>
        </organization>
        <code>
          <coding>
            <system value="http://www.abs.gov.au/ausstats/abs@.nsf/mf/1220.0"/>
            <code value="253111"/>
            <display value="General Practitioner"/>
          </coding>
          <coding>
            <system value="http://snomed.info/sct"/>
            <code value="62247001"/>
          </coding>
        </code>
        <specialty>
          <coding>
            <system value="http://snomed.info/sct"/>
            <code value="408443003"/>
          </coding>
        </specialty>
        <telecom>
          <system value="phone"/>
          <value value="0270105673"/>
          <use value="work"/>
        </telecom>
        <telecom>
          <system value="email"/>
          <value value="ginger.burrows@bungabbeemc.example.com.au"/>
          <use value="work"/>
        </telecom>
      </PractitionerRole>
    </resource>
  </entry>
  <entry>
    <fullUrl value="urn:uuid:0c0e2c4f-a748-4cc7-afde-f09bdc2d6fa9"/>
    <resource>
      <Practitioner>
        <id value="0c0e2c4f-a748-4cc7-afde-f09bdc2d6fa9"/>
        <meta>
          <profile value="http://hl7.org.au/fhir/ps/StructureDefinition/au-ps-practitioner"/>
        </meta>
        <identifier>
          <type>
            <coding>
              <system value="http://terminology.hl7.org/CodeSystem/v2-0203"/>
              <code value="NPI"/>
              <display value="National provider identifier"/>
            </coding>
            <text value="HPI-I"/>
          </type>
          <system value="http://ns.electronichealth.net.au/id/hi/hpii/1.0"/>
          <value value="8003618233385011"/>
        </identifier>
        <name>
          <family value="BURROWS"/>
          <given value="Ginger"/>
        </name>
        <telecom>
          <system value="phone"/>
          <value value="0270105673"/>
          <use value="work"/>
        </telecom>
        <telecom>
          <system value="email"/>
          <value value="ginger.burrows@bungabbeemc.example.com.au"/>
        </telecom>
        <address>
          <line value="189 Bay Esp"/>
          <city value="Bungabbee"/>
          <state value="NSW"/>
          <postalCode value="2480"/>
        </address>
      </Practitioner>
    </resource>
  </entry>
  <entry>
    <fullUrl value="urn:uuid:14292353-98f0-43b3-a25b-406baf3f9175"/>
    <resource>
      <Organization>
        <id value="14292353-98f0-43b3-a25b-406baf3f9175"/>
        <meta>
          <profile value="http://hl7.org.au/fhir/ps/StructureDefinition/au-ps-organization"/>
        </meta>
        <identifier>
          <type>
            <coding>
              <system value="http://terminology.hl7.org.au/CodeSystem/v2-0203"/>
              <code value="NOI"/>
            </coding>
            <text value="HPI-O"/>
          </type>
          <system value="http://ns.electronichealth.net.au/id/hi/hpio/1.0"/>
          <value value="8003624900039170"/>
        </identifier>
        <identifier>
          <type>
            <coding>
              <system value="http://terminology.hl7.org/CodeSystem/v2-0203"/>
              <code value="XX"/>
            </coding>
            <text value="ABN"/>
          </type>
          <system value="http://hl7.org.au/id/abn"/>
          <value value="81156248664"/>
        </identifier>
        <type>
          <coding>
            <system value="http://www.abs.gov.au/ausstats/abs@.nsf/mf/1292.0"/>
            <code value="8511"/>
            <display value="General Practice Medical Services"/>
          </coding>
          <coding>
            <system value="http://snomed.info/sct"/>
            <code value="788007007"/>
            <display value="General practice service"/>
          </coding>
          <text value="General practice medical clinic service"/>
        </type>
        <name value="Bungabbee Medical Clinic"/>
        <telecom>
          <system value="phone"/>
          <value value="0255506327"/>
          <use value="work"/>
        </telecom>
        <telecom>
          <system value="email"/>
          <value value="info@bungabbeemc.example.com.au"/>
        </telecom>
        <address>
          <line value="158 Toby Ave"/>
          <city value="Bungabbee"/>
          <state value="NSW"/>
          <postalCode value="2480"/>
        </address>
      </Organization>
    </resource>
  </entry>
  <entry>
    <fullUrl value="urn:uuid:62eb70e3-e814-4785-80d3-8aa45b1fc367"/>
    <resource>
      <Immunization>
        <id value="62eb70e3-e814-4785-80d3-8aa45b1fc367"/>
        <meta>
          <profile value="http://hl7.org.au/fhir/ps/StructureDefinition/au-ps-immunization"/>
        </meta>
        <status value="completed"/>
        <vaccineCode>
          <coding>
            <system value="https://www.humanservices.gov.au/organisations/health-professionals/enablers/air-vaccine-code-formats"/>
            <code value="PANVAX"/>
          </coding>
          <text value="Panvax"/>
        </vaccineCode>
        <patient>
          <reference value="urn:uuid:85822a88-55b1-460c-bb7b-e8fc22d8568f"/>
        </patient>
        <occurrenceDateTime value="2023-05-15"/>
        <primarySource value="true"/>
        <note>
          <text value="Pt reported localised redness and swelling post previous flu vax last year. Monitor for rxn."/>
        </note>
      </Immunization>
    </resource>
  </entry>
  <entry>
    <fullUrl value="urn:uuid:2f3537b2-f50c-4a2a-ab92-30fdcfe5fd96"/>
    <resource>
      <Immunization>
        <id value="2f3537b2-f50c-4a2a-ab92-30fdcfe5fd96"/>
        <meta>
          <profile value="http://hl7.org.au/fhir/ps/StructureDefinition/au-ps-immunization"/>
        </meta>
        <extension url="http://hl7.org.au/fhir/StructureDefinition/vaccine-serial-number">
          <valueString value="SERIAL1234"/>
        </extension>
        <status value="completed"/>
        <vaccineCode>
          <coding>
            <system value="https://www.humanservices.gov.au/organisations/health-professionals/enablers/air-vaccine-code-formats"/>
            <code value="PANVAX"/>
            <display value="Panvax"/>
          </coding>
          <text value="Panvax"/>
        </vaccineCode>
        <patient>
          <reference value="urn:uuid:85822a88-55b1-460c-bb7b-e8fc22d8568f"/>
        </patient>
        <occurrenceDateTime value="2024-05-05"/>
        <primarySource value="true"/>
        <lotNumber value="lot001"/>
      </Immunization>
    </resource>
  </entry>
  <entry>
    <fullUrl value="urn:uuid:97767fb5-3be7-4d16-9ee8-76c47a4ab0ce"/>
    <resource>
      <Immunization>
        <id value="97767fb5-3be7-4d16-9ee8-76c47a4ab0ce"/>
        <meta>
          <profile value="http://hl7.org.au/fhir/ps/StructureDefinition/au-ps-immunization"/>
        </meta>
        <extension url="http://hl7.org.au/fhir/StructureDefinition/vaccine-serial-number">
          <valueString value="vNo1111"/>
        </extension>
        <status value="completed"/>
        <vaccineCode>
          <coding>
            <system value="https://www.humanservices.gov.au/organisations/health-professionals/enablers/air-vaccine-code-formats"/>
            <code value="MODERN"/>
          </coding>
          <coding>
            <system value="http://snomed.info/sct"/>
            <code value="1730491000168104"/>
            <display value="Spikevax 50 microgram/0.5 mL injection, 0.5 mL syringe"/>
          </coding>
          <text value="COVID-19 mRNA-1273 Vaccine (Moderna) injection, 0.5 mL syringe"/>
        </vaccineCode>
        <patient>
          <reference value="urn:uuid:85822a88-55b1-460c-bb7b-e8fc22d8568f"/>
        </patient>
        <occurrenceDateTime value="2023-05-15"/>
        <recorded value="2022-02-14"/>
        <primarySource value="true"/>
        <manufacturer>
          <display value="ModernaTX, Inc."/>
        </manufacturer>
        <lotNumber value="RX00000F"/>
      </Immunization>
    </resource>
  </entry>
  <entry>
    <fullUrl value="urn:uuid:8924f910-53b3-4125-b0f2-58d0068f8983"/>
    <resource>
      <Observation>
        <id value="8924f910-53b3-4125-b0f2-58d0068f8983"/>
        <meta>
          <profile value="http://hl7.org.au/fhir/core/StructureDefinition/au-core-smokingstatus"/>
          <profile value="http://hl7.org/fhir/uv/ips/StructureDefinition/Observation-tobaccouse-uv-ips"/>
        </meta>
        <status value="final"/>
        <category>
          <coding>
            <system value="http://terminology.hl7.org/CodeSystem/observation-category"/>
            <code value="social-history"/>
            <display value="Social History"/>
          </coding>
          <text value="Social History"/>
        </category>
        <code>
        <coding>
            <system value="http://snomed.info/sct"/>
            <code value="1747861000168109" />
          </coding>
          <coding>
            <system value="http://loinc.org"/>
            <code value="72166-2" />
          </coding>
          <text value="Smoking status"/>
        </code>
        <subject>
          <reference value="urn:uuid:85822a88-55b1-460c-bb7b-e8fc22d8568f"/>
        </subject>
        <effectiveDateTime value="2024-10-28"/>
        <valueCodeableConcept>
          <coding>
            <system value="http://snomed.info/sct"/>
            <code value="266919005"/>
          </coding>
          <text value="Lifetime non-smoker"/>
        </valueCodeableConcept>
      </Observation>
    </resource>
  </entry>
  <signature>
    <type>
      <system value="urn:iso-astm:E1762-95:2013"/>
      <code value="1.2.840.10065.1.12.1.1"/>
      <display value="Author's Signature"/>
    </type>
    <when value="2024-10-28T11:57:11.269+11:00"/>
    <who>
      <reference value="urn:uuid:afead11c-3bee-4020-af4f-44040abfa961"/>
    </who>
    <sigFormat value="image/png"/>
    <targetFormat value="application/fhir+xml"/>
    <data value="
      
      
      
      
      
      
      
      
      
      
      
      
      
      
      
      
      
      
      
      
      
      
      
      
      
      
      
      
      
      
      
      
      
      
      
      
      
      
      
      
      
      
      
      
      
      
      
      
      
      
      
      
      
      
      
      
      
      
      
      
      
      
      
      
      
      
      
      
      
      
      
      
      
      
      
      
      
      
      
      
      
      
      
      
      
      
      
      
      
      
      
      
      
      
      
      
      
      
      
      
      
      
      
      
      
      
      
      
      
      
      
      
      
      
      
      
      
      
      
      
      
      
      
      
      
      
      
      
      
      
      
      
      
      
      
      
      
      
      
      
      
      
      
      
      
      
      
      
      
      
      
      
      
      
      
      
      
      
      
      
      
      
      
      
      
      
      
      
      
      
      
      
      
      
      
      
      
      
      
      
      
      
      
      
      
      
      SGPZJh14L7vGNgaxPgaY+nTuKFokiQAAAABJRU5ErkJggg==
      ">
    </data>
  </signature>
</Bundle>