<?xml version="1.0" encoding="UTF-8"?>
<Bundle xmlns="http://hl7.org/fhir">
  <id value="section-emptyreason"/>
  <meta>
    <profile value="http://hl7.org.au/fhir/ps/StructureDefinition/au-ps-bundle"/>
  </meta>
  <language value="en-AU"/>
  <identifier>
    <system value="urn:ietf:rfc:3986"/>
    <value value="urn:uuid:b6c2419f-3add-455b-9825-7d835b41f34a"/>
  </identifier>
  <type value="document"/>
  <timestamp value="2025-01-08T20:42:11.0607701+10:00"/>
  <entry>
    <fullUrl value="urn:uuid:514af4c1-194d-48b4-8afe-7be09d3f895a"/>
    <resource>
      <Composition>
        <id value="514af4c1-194d-48b4-8afe-7be09d3f895a"/>
        <meta>
          <versionId value="1"/>
        </meta>
        <language value="en-AU"/>
        <status value="final"/>
        <type>
          <coding>
            <system value="http://loinc.org"/>
            <code value="60591-5"/>
            <display value="Patient summary Document"/>
          </coding>
        </type>
        <subject>
          <reference value="urn:uuid:9be88cc6-09e8-4dc6-b058-88676240dbc7"/>
        </subject>
        <date value="2021-05-03"/>
        <author>
          <reference value="urn:uuid:715076f4-007a-4c9d-beed-c155cc46f765"/>
        </author>
        <title value="International Patient Summary"/>
        <custodian>
          <reference value="urn:uuid:70a756e3-20b3-4637-8601-a222983e295a"/>
        </custodian>
        <event>
          <code>
            <coding>
              <system value="http://terminology.hl7.org/CodeSystem/v3-ActClass"/>
              <code value="PCPR"/>
            </coding>
          </code>
          <period>
            <end value="2025-01-08"/>
          </period>
        </event>
        <section>
          <title value="Allergies and Intolerances"/>
          <code>
            <coding>
              <system value="http://loinc.org"/>
              <code value="48765-2"/>
              <display value="Allergies and adverse reactions Document"/>
            </coding>
          </code>
          <text>
            <status value="generated"/><div xmlns="http://www.w3.org/1999/xhtml" lang="en-AU" xml:lang="en-AU">There is no information available regarding the consumer"s allergy conditions.</div>
          </text>
          <emptyReason>
            <coding>
              <system value="http://terminology.hl7.org/CodeSystem/list-empty-reason"/>
              <code value="unavailable"/>
              <display value="Unavailable"/>
            </coding>
            <text value="No information available"/>
          </emptyReason>
        </section>
        <section>
          <title value="Problem List"/>
          <code>
            <coding>
              <system value="http://loinc.org"/>
              <code value="11450-4"/>
              <display value="Problem list - Reported"/>
            </coding>
          </code>
          <text>
            <status value="generated"/><div xmlns="http://www.w3.org/1999/xhtml" lang="en-AU" xml:lang="en-AU">There is no information available about the consumer"s health problems or disabilities.</div>
          </text>
          <emptyReason>
            <coding>
              <system value="http://terminology.hl7.org/CodeSystem/list-empty-reason"/>
              <code value="unavailable"/>
              <display value="Unavailable"/>
            </coding>
            <text value="No information available"/>
          </emptyReason>
        </section>
        <section>
          <title value="Medication Summary"/>
          <code>
            <coding>
              <system value="http://loinc.org"/>
              <code value="10160-0"/>
              <display value="History of Medication use Narrative"/>
            </coding>
          </code>
          <text>
            <status value="generated"/><div xmlns="http://www.w3.org/1999/xhtml" lang="en-AU" xml:lang="en-AU">There is no information available about the consumer"s medication use or administration.</div>
          </text>
          <emptyReason>
            <coding>
              <system value="http://terminology.hl7.org/CodeSystem/list-empty-reason"/>
              <code value="unavailable"/>
              <display value="Unavailable"/>
            </coding>
            <text value="No information available"/>
          </emptyReason>
        </section>
        <section>
          <title value="Immunizations"/>
          <code>
            <coding>
              <system value="http://loinc.org"/>
              <code value="11369-6"/>
              <display value="History of Immunization Narrative"/>
            </coding>
          </code>
          <text>
            <status value="generated"/><div xmlns="http://www.w3.org/1999/xhtml" lang="en-AU" xml:lang="en-AU">There is no information available about the consumer"s immunisations.</div>
          </text>
          <emptyReason>
            <coding>
              <system value="http://terminology.hl7.org/CodeSystem/list-empty-reason"/>
              <code value="unavailable"/>
              <display value="Unavailable"/>
            </coding>
            <text value="No information available"/>
          </emptyReason>
        </section>
      </Composition>
    </resource>
  </entry>
  <entry>
    <fullUrl value="urn:uuid:9be88cc6-09e8-4dc6-b058-88676240dbc7"/>
    <resource>
      <Patient>
        <id value="9be88cc6-09e8-4dc6-b058-88676240dbc7"/>
        <extension url="http://hl7.org.au/fhir/StructureDefinition/indigenous-status">
          <valueCoding>
            <system value="https://healthterminologies.gov.au/fhir/CodeSystem/australian-indigenous-status-1"/>
            <code value="2"/>
            <display value="Torres Strait Islander but not Aboriginal origin"/>
          </valueCoding>
        </extension>
        <identifier>
          <type>
            <coding>
              <system value="http://terminology.hl7.org.au/CodeSystem/v2-0203"/>
              <code value="DVAU"/>
              <display value="DVA Number"/>
            </coding>
            <text value="DVA Number"/>
          </type>
          <system value="http://ns.electronichealth.net.au/id/dva"/>
          <value value="QX827261"/>
        </identifier>
        <name>
          <use value="usual"/>
          <family value="Irvine"/>
          <given value="Ronny"/>
          <given value="Lawrence"/>
        </name>
        <telecom>
          <system value="email"/>
          <value value="ronny.irvine@myownpersonaldomain.com"/>
          <use value="home"/>
        </telecom>
        <gender value="male"/>
        <birthDate>
          <extension url="http://hl7.org/fhir/StructureDefinition/data-absent-reason">
            <valueCode value="unknown"/>
          </extension>
        </birthDate>
        <address>
          <use value="home"/>
          <line value="180 Hermann Rd"/>
          <city value="Belmore River"/>
          <state value="NSW"/>
          <postalCode value="2440"/>
          <country value="Australia"/>
        </address>
      </Patient>
    </resource>
  </entry>
  <entry>
    <fullUrl value="urn:uuid:715076f4-007a-4c9d-beed-c155cc46f765"/>
    <resource>
      <Device>
        <id value="715076f4-007a-4c9d-beed-c155cc46f765"/>
        <identifier>
          <system value="http://example.com/emr-system"/>
          <value value="emr-west"/>
        </identifier>
        <manufacturer value="Example Software"/>
        <deviceName>
          <name value="Example Medical Record"/>
          <type value="user-friendly-name"/>
        </deviceName>
        <type>
          <coding>
            <system value="http://snomed.info/sct"/>
            <code value="706593004"/>
            <display value="Clinical information system"/>
          </coding>
          <text value="Clinical Information System"/>
        </type>
        <version>
          <value value="10.0.1"/>
        </version>
      </Device>
    </resource>
  </entry>
  <entry>
    <fullUrl value="urn:uuid:70a756e3-20b3-4637-8601-a222983e295a"/>
    <resource>
      <Organization>
        <id value="70a756e3-20b3-4637-8601-a222983e295a"/>
        <identifier>
          <type>
            <coding>
                <system value="http://terminology.hl7.org/CodeSystem/v2-0203"/>
                <code value="XX"/>
            </coding>
            <text value="ABN"/>
          </type>
          <system value="http://hl7.org.au/id/abn"/>
          <value value="12345678901"/>
        </identifier>
        <type>
          <coding>
              <system value="http://snomed.info/sct"/>
              <code value="288565001"/>
              <display value="Medical centre"/>
          </coding>
          <text value="Medical Center"/>
        </type>
        <name value="Bobrester Medical Center"/>
        <telecom>
          <system value="email"/>
          <value value="info@bobrestermedical.example.com"/>
          <use value="work"/>
        </telecom>
        <telecom>
          <system value="phone"/>
          <value value="(07) 5550 2427"/>
          <use value="work"/>
        </telecom>
        <address>
          <line value="87 Western Esp"/>
          <city value="Tindal RAAF"/>
          <state value="QLD"/>
          <postalCode value="4655"/>
          <country value="AU"/>
        </address>
      </Organization>
    </resource>
  </entry>
</Bundle>